ok1.keys,ok1.rt,resp.keys,resp.corr,resp.rt,practiceTrials.thisRepN,practiceTrials.thisTrialN,practiceTrials.thisN,practiceTrials.thisIndex,practiceTrials.ran,strings,word_nonword,corrans,font,participant,gender (m/f),age,session,date,expName,psychopyVersion,OS,frameRate,trials.thisRepN,trials.thisTrialN,trials.thisN,trials.thisIndex,trials.ran,freq
space,31.4988,n,0,1.0928,0,0,0,2,1,umlaut,word,w,S,A,f,19,01,2021-10-07_22h25.55.888,WordFreq,2021.1.4,Win32,59.01445854,,,,,,
,,w,1,0.814,0,1,1,3,1,doppleganger,word,w,SS,A,f,19,01,2021-10-07_22h25.55.888,WordFreq,2021.1.4,Win32,59.01445854,,,,,,
,,w,1,0.5973,0,2,2,4,1,custard,word,w,S,A,f,19,01,2021-10-07_22h25.55.888,WordFreq,2021.1.4,Win32,59.01445854,,,,,,
,,n,1,0.8311,0,3,3,7,1,imleit,nonword,n,SS,A,f,19,01,2021-10-07_22h25.55.888,WordFreq,2021.1.4,Win32,59.01445854,,,,,,
,,n,1,1.2137,0,4,4,9,1,casterd,nonword,n,SS,A,f,19,01,2021-10-07_22h25.55.888,WordFreq,2021.1.4,Win32,59.01445854,,,,,,
,,w,1,0.688,0,5,5,1,1,house,word,w,SS,A,f,19,01,2021-10-07_22h25.55.888,WordFreq,2021.1.4,Win32,59.01445854,,,,,,
,,n,1,0.8482,0,6,6,6,1,haise,nonword,n,S,A,f,19,01,2021-10-07_22h25.55.888,WordFreq,2021.1.4,Win32,59.01445854,,,,,,
,,w,1,0.6688,0,7,7,0,1,dog,word,w,S,A,f,19,01,2021-10-07_22h25.55.888,WordFreq,2021.1.4,Win32,59.01445854,,,,,,
,,n,1,0.6835,0,8,8,8,1,dipplagungor,nonword,n,S,A,f,19,01,2021-10-07_22h25.55.888,WordFreq,2021.1.4,Win32,59.01445854,,,,,,
,,n,1,0.6741,0,9,9,5,1,deg,nonword,n,SS,A,f,19,01,2021-10-07_22h25.55.888,WordFreq,2021.1.4,Win32,59.01445854,,,,,,
,,w,0,0.6155,,,,,,robuttel,nonword,n,,A,f,19,01,2021-10-07_22h25.55.888,WordFreq,2021.1.4,Win32,59.01445854,0,0,0,116,1,2
,,n,1,0.7219,,,,,,essaduoas,nonword,n,,A,f,19,01,2021-10-07_22h25.55.888,WordFreq,2021.1.4,Win32,59.01445854,0,1,1,60,1,1
,,n,0,0.7679,,,,,,chancels,word,w,,A,f,19,01,2021-10-07_22h25.55.888,WordFreq,2021.1.4,Win32,59.01445854,0,2,2,27,1,1
,,n,1,0.6248,,,,,,frageloty,nonword,n,,A,f,19,01,2021-10-07_22h25.55.888,WordFreq,2021.1.4,Win32,59.01445854,0,3,3,103,1,2
,,w,1,0.7335,,,,,,scientific,word,w,,A,f,19,01,2021-10-07_22h25.55.888,WordFreq,2021.1.4,Win32,59.01445854,0,4,4,33,1,86
,,n,1,0.6071,,,,,,theostoc,nonword,n,,A,f,19,01,2021-10-07_22h25.55.888,WordFreq,2021.1.4,Win32,59.01445854,0,5,5,118,1,1
,,n,1,0.6499,,,,,,iducetuon,nonword,n,,A,f,19,01,2021-10-07_22h25.55.888,WordFreq,2021.1.4,Win32,59.01445854,0,6,6,67,1,214
,,w,1,0.6314,,,,,,lawyer,word,w,,A,f,19,01,2021-10-07_22h25.55.888,WordFreq,2021.1.4,Win32,59.01445854,0,7,7,1,1,43
,,w,1,0.8538,,,,,,amicable,word,w,,A,f,19,01,2021-10-07_22h25.55.888,WordFreq,2021.1.4,Win32,59.01445854,0,8,8,52,1,1
,,n,1,0.6759,,,,,,erudotoon,nonword,n,,A,f,19,01,2021-10-07_22h25.55.888,WordFreq,2021.1.4,Win32,59.01445854,0,9,9,101,1,1
,,n,1,0.731,,,,,,percopoence,nonword,n,,A,f,19,01,2021-10-07_22h25.55.888,WordFreq,2021.1.4,Win32,59.01445854,0,10,10,117,1,1
,,n,1,0.645,,,,,,psychocel,nonword,n,,A,f,19,01,2021-10-07_22h25.55.888,WordFreq,2021.1.4,Win32,59.01445854,0,11,11,84,1,4
,,w,1,0.8202,,,,,,charitable,word,w,,A,f,19,01,2021-10-07_22h25.55.888,WordFreq,2021.1.4,Win32,59.01445854,0,12,12,32,1,5
,,n,1,0.5864,,,,,,huevanly,nonword,n,,A,f,19,01,2021-10-07_22h25.55.888,WordFreq,2021.1.4,Win32,59.01445854,0,13,13,89,1,9
,,w,1,0.6317,,,,,,market,word,w,,A,f,19,01,2021-10-07_22h25.55.888,WordFreq,2021.1.4,Win32,59.01445854,0,14,14,16,1,133
,,n,1,0.6022,,,,,,eltruostoc,nonword,n,,A,f,19,01,2021-10-07_22h25.55.888,WordFreq,2021.1.4,Win32,59.01445854,0,15,15,109,1,1
,,n,0,0.5483,,,,,,etcher,word,w,,A,f,19,01,2021-10-07_22h25.55.888,WordFreq,2021.1.4,Win32,59.01445854,0,16,16,40,1,1
,,w,1,0.5653,,,,,,service,word,w,,A,f,19,01,2021-10-07_22h25.55.888,WordFreq,2021.1.4,Win32,59.01445854,0,17,17,15,1,313
,,n,0,0.6216,,,,,,rebuttal,word,w,,A,f,19,01,2021-10-07_22h25.55.888,WordFreq,2021.1.4,Win32,59.01445854,0,18,18,56,1,2
,,w,1,0.8029,,,,,,benign,word,w,,A,f,19,01,2021-10-07_22h25.55.888,WordFreq,2021.1.4,Win32,59.01445854,0,19,19,17,1,1
,,n,1,0.7155,,,,,,eutomobole,nonword,n,,A,f,19,01,2021-10-07_22h25.55.888,WordFreq,2021.1.4,Win32,59.01445854,0,20,20,65,1,50
,,n,0,1.083,,,,,,elegies,word,w,,A,f,19,01,2021-10-07_22h25.55.888,WordFreq,2021.1.4,Win32,59.01445854,0,21,21,38,1,1
,,n,1,0.5543,,,,,,convovoeloty,nonword,n,,A,f,19,01,2021-10-07_22h25.55.888,WordFreq,2021.1.4,Win32,59.01445854,0,22,22,99,1,1
,,w,1,0.6669,,,,,,intellectual,word,w,,A,f,19,01,2021-10-07_22h25.55.888,WordFreq,2021.1.4,Win32,59.01445854,0,23,23,51,1,68
,,w,1,0.8837,,,,,,literary,word,w,,A,f,19,01,2021-10-07_22h25.55.888,WordFreq,2021.1.4,Win32,59.01445854,0,24,24,13,1,78
,,w,1,0.7886,,,,,,condolence,word,w,,A,f,19,01,2021-10-07_22h25.55.888,WordFreq,2021.1.4,Win32,59.01445854,0,25,25,6,1,1
,,n,1,0.6321,,,,,,otchur,nonword,n,,A,f,19,01,2021-10-07_22h25.55.888,WordFreq,2021.1.4,Win32,59.01445854,0,26,26,100,1,1
,,n,1,0.5843,,,,,,mutephar,nonword,n,,A,f,19,01,2021-10-07_22h25.55.888,WordFreq,2021.1.4,Win32,59.01445854,0,27,27,94,1,5
,,n,1,0.64,,,,,,mundene,nonword,n,,A,f,19,01,2021-10-07_22h25.55.888,WordFreq,2021.1.4,Win32,59.01445854,0,28,28,110,1,3
,,w,1,0.7205,,,,,,earthly,word,w,,A,f,19,01,2021-10-07_22h25.55.888,WordFreq,2021.1.4,Win32,59.01445854,0,29,29,31,1,6
,,w,1,0.6478,,,,,,heavenly,word,w,,A,f,19,01,2021-10-07_22h25.55.888,WordFreq,2021.1.4,Win32,59.01445854,0,30,30,29,1,9
,,n,1,0.6503,,,,,,poctere,nonword,n,,A,f,19,01,2021-10-07_22h25.55.888,WordFreq,2021.1.4,Win32,59.01445854,0,31,31,85,1,162
,,n,1,0.6446,,,,,,letarery,nonword,n,,A,f,19,01,2021-10-07_22h25.55.888,WordFreq,2021.1.4,Win32,59.01445854,0,32,32,73,1,78
,,w,1,0.9893,,,,,,uncoerced,word,w,,A,f,19,01,2021-10-07_22h25.55.888,WordFreq,2021.1.4,Win32,59.01445854,0,33,33,53,1,1
,,n,1,0.8002,,,,,,emoceble,nonword,n,,A,f,19,01,2021-10-07_22h25.55.888,WordFreq,2021.1.4,Win32,59.01445854,0,34,34,112,1,1
,,n,1,0.7581,,,,,,onductove,nonword,n,,A,f,19,01,2021-10-07_22h25.55.888,WordFreq,2021.1.4,Win32,59.01445854,0,35,35,106,1,1
,,n,1,0.6518,,,,,,ontellectiel,nonword,n,,A,f,19,01,2021-10-07_22h25.55.888,WordFreq,2021.1.4,Win32,59.01445854,0,36,36,111,1,68
,,n,1,0.8295,,,,,,vognette,nonword,n,,A,f,19,01,2021-10-07_22h25.55.888,WordFreq,2021.1.4,Win32,59.01445854,0,37,37,108,1,2
,,w,1,0.8439,,,,,,mundane,word,w,,A,f,19,01,2021-10-07_22h25.55.888,WordFreq,2021.1.4,Win32,59.01445854,0,38,38,50,1,3
,,n,1,0.7753,,,,,,berroster,nonword,n,,A,f,19,01,2021-10-07_22h25.55.888,WordFreq,2021.1.4,Win32,59.01445854,0,39,39,71,1,1
,,w,1,0.817,,,,,,altruistic,word,w,,A,f,19,01,2021-10-07_22h25.55.888,WordFreq,2021.1.4,Win32,59.01445854,0,40,40,49,1,1
,,n,1,1.7919,,,,,,benogn,nonword,n,,A,f,19,01,2021-10-07_22h25.55.888,WordFreq,2021.1.4,Win32,59.01445854,0,41,41,77,1,1
,,w,1,0.6174,,,,,,religious,word,w,,A,f,19,01,2021-10-07_22h25.55.888,WordFreq,2021.1.4,Win32,59.01445854,0,42,42,21,1,165
,,w,1,0.8583,,,,,,vignette,word,w,,A,f,19,01,2021-10-07_22h25.55.888,WordFreq,2021.1.4,Win32,59.01445854,0,43,43,48,1,2
,,w,1,0.7197,,,,,,judiciary,word,w,,A,f,19,01,2021-10-07_22h25.55.888,WordFreq,2021.1.4,Win32,59.01445854,0,44,44,54,1,3
,,n,1,0.7444,,,,,,unsumble,nonword,n,,A,f,19,01,2021-10-07_22h25.55.888,WordFreq,2021.1.4,Win32,59.01445854,0,45,45,102,1,11
,,n,0,1.865,,,,,,barrister,word,w,,A,f,19,01,2021-10-07_22h25.55.888,WordFreq,2021.1.4,Win32,59.01445854,0,46,46,11,1,1
,,n,1,0.8398,,,,,,gavirnmunt,nonword,n,,A,f,19,01,2021-10-07_22h25.55.888,WordFreq,2021.1.4,Win32,59.01445854,0,47,47,104,1,417
,,w,1,0.8349,,,,,,economics,word,w,,A,f,19,01,2021-10-07_22h25.55.888,WordFreq,2021.1.4,Win32,59.01445854,0,48,48,28,1,17
,,w,1,0.6817,,,,,,physics,word,w,,A,f,19,01,2021-10-07_22h25.55.888,WordFreq,2021.1.4,Win32,59.01445854,0,49,49,2,1,22
,,n,1,0.6203,,,,,,servoce,nonword,n,,A,f,19,01,2021-10-07_22h25.55.888,WordFreq,2021.1.4,Win32,59.01445854,0,50,50,75,1,313
,,n,0,0.762,,,,,,beatific,word,w,,A,f,19,01,2021-10-07_22h25.55.888,WordFreq,2021.1.4,Win32,59.01445854,0,51,51,14,1,1
,,n,1,0.8114,,,,,,aurthly,nonword,n,,A,f,19,01,2021-10-07_22h25.55.888,WordFreq,2021.1.4,Win32,59.01445854,0,52,52,91,1,6
,,n,1,0.5707,,,,,,calestoel,nonword,n,,A,f,19,01,2021-10-07_22h25.55.888,WordFreq,2021.1.4,Win32,59.01445854,0,53,53,90,1,8
,,n,1,0.5659,,,,,,lomousone,nonword,n,,A,f,19,01,2021-10-07_22h25.55.888,WordFreq,2021.1.4,Win32,59.01445854,0,54,54,70,1,4
,,w,1,0.7029,,,,,,percipience,word,w,,A,f,19,01,2021-10-07_22h25.55.888,WordFreq,2021.1.4,Win32,59.01445854,0,55,55,57,1,1
,,n,0,0.7672,,,,,,erudition,word,w,,A,f,19,01,2021-10-07_22h25.55.888,WordFreq,2021.1.4,Win32,59.01445854,0,56,56,41,1,1
,,n,1,0.6035,,,,,,rivurence,nonword,n,,A,f,19,01,2021-10-07_22h25.55.888,WordFreq,2021.1.4,Win32,59.01445854,0,57,57,79,1,5
,,n,1,0.6485,,,,,,physocs,nonword,n,,A,f,19,01,2021-10-07_22h25.55.888,WordFreq,2021.1.4,Win32,59.01445854,0,58,58,62,1,22
,,n,1,0.7151,,,,,,essets,nonword,n,,A,f,19,01,2021-10-07_22h25.55.888,WordFreq,2021.1.4,Win32,59.01445854,0,59,59,115,1,13
,,w,1,0.6335,,,,,,statistics,word,w,,A,f,19,01,2021-10-07_22h25.55.888,WordFreq,2021.1.4,Win32,59.01445854,0,60,60,9,1,1
,,n,1,0.6326,,,,,,stetostocs,nonword,n,,A,f,19,01,2021-10-07_22h25.55.888,WordFreq,2021.1.4,Win32,59.01445854,0,61,61,69,1,1
,,n,1,0.5688,,,,,,chencels,nonword,n,,A,f,19,01,2021-10-07_22h25.55.888,WordFreq,2021.1.4,Win32,59.01445854,0,62,62,87,1,1
,,n,1,0.4817,,,,,,cindalence,nonword,n,,A,f,19,01,2021-10-07_22h25.55.888,WordFreq,2021.1.4,Win32,59.01445854,0,63,63,66,1,1
,,n,1,0.5421,,,,,,bruker,nonword,n,,A,f,19,01,2021-10-07_22h25.55.888,WordFreq,2021.1.4,Win32,59.01445854,0,64,64,95,1,1
,,n,1,0.5368,,,,,,merket,nonword,n,,A,f,19,01,2021-10-07_22h25.55.888,WordFreq,2021.1.4,Win32,59.01445854,0,65,65,76,1,133
,,w,1,0.6322,,,,,,debating,word,w,,A,f,19,01,2021-10-07_22h25.55.888,WordFreq,2021.1.4,Win32,59.01445854,0,66,66,37,1,4
,,n,1,0.6767,,,,,,lewyor,nonword,n,,A,f,19,01,2021-10-07_22h25.55.888,WordFreq,2021.1.4,Win32,59.01445854,0,67,67,61,1,43
,,n,1,0.6156,,,,,,debetong,nonword,n,,A,f,19,01,2021-10-07_22h25.55.888,WordFreq,2021.1.4,Win32,59.01445854,0,68,68,97,1,4
,,w,1,0.7706,,,,,,reverence,word,w,,A,f,19,01,2021-10-07_22h25.55.888,WordFreq,2021.1.4,Win32,59.01445854,0,69,69,19,1,5
,,w,1,0.5531,,,,,,spiritual,word,w,,A,f,19,01,2021-10-07_22h25.55.888,WordFreq,2021.1.4,Win32,59.01445854,0,70,70,12,1,64
,,w,1,1.216,,,,,,theistic,word,w,,A,f,19,01,2021-10-07_22h25.55.888,WordFreq,2021.1.4,Win32,59.01445854,0,71,71,58,1,1
,,n,0,1.0486,,,,,,assiduous,word,w,,A,f,19,01,2021-10-07_22h25.55.888,WordFreq,2021.1.4,Win32,59.01445854,0,72,72,0,1,1
,,w,1,0.8151,,,,,,broker,word,w,,A,f,19,01,2021-10-07_22h25.55.888,WordFreq,2021.1.4,Win32,59.01445854,0,73,73,35,1,1
,,w,1,0.5592,,,,,,sympathy,word,w,,A,f,19,01,2021-10-07_22h25.55.888,WordFreq,2021.1.4,Win32,59.01445854,0,74,74,3,1,6
,,n,0,0.9173,,,,,,ensemble,word,w,,A,f,19,01,2021-10-07_22h25.55.888,WordFreq,2021.1.4,Win32,59.01445854,0,75,75,42,1,11
,,n,1,0.7093,,,,,,froandly,nonword,n,,A,f,19,01,2021-10-07_22h25.55.888,WordFreq,2021.1.4,Win32,59.01445854,0,76,76,68,1,61
,,w,1,0.6868,,,,,,savings,word,w,,A,f,19,01,2021-10-07_22h25.55.888,WordFreq,2021.1.4,Win32,59.01445854,0,77,77,18,1,23
,,w,1,0.6222,,,,,,picture,word,w,,A,f,19,01,2021-10-07_22h25.55.888,WordFreq,2021.1.4,Win32,59.01445854,0,78,78,25,1,162
,,w,1,0.8045,,,,,,metaphor,word,w,,A,f,19,01,2021-10-07_22h25.55.888,WordFreq,2021.1.4,Win32,59.01445854,0,79,79,34,1,5
,,n,1,0.9184,,,,,,charches,nonword,n,,A,f,19,01,2021-10-07_22h25.55.888,WordFreq,2021.1.4,Win32,59.01445854,0,80,80,96,1,96
,,n,1,0.7848,,,,,,huspoteloty,nonword,n,,A,f,19,01,2021-10-07_22h25.55.888,WordFreq,2021.1.4,Win32,59.01445854,0,81,81,105,1,6
,,w,1,0.755,,,,,,limousine,word,w,,A,f,19,01,2021-10-07_22h25.55.888,WordFreq,2021.1.4,Win32,59.01445854,0,82,82,10,1,4
,,n,1,0.6782,,,,,,ancourced,nonword,n,,A,f,19,01,2021-10-07_22h25.55.888,WordFreq,2021.1.4,Win32,59.01445854,0,83,83,113,1,1
,,n,1,0.6061,,,,,,sevongs,nonword,n,,A,f,19,01,2021-10-07_22h25.55.888,WordFreq,2021.1.4,Win32,59.01445854,0,84,84,78,1,23
,,n,1,0.5739,,,,,,acinamocs,nonword,n,,A,f,19,01,2021-10-07_22h25.55.888,WordFreq,2021.1.4,Win32,59.01445854,0,85,85,88,1,17
,,n,1,0.6713,,,,,,padegigue,nonword,n,,A,f,19,01,2021-10-07_22h25.55.888,WordFreq,2021.1.4,Win32,59.01445854,0,86,86,83,1,1
,,w,1,0.6651,,,,,,education,word,w,,A,f,19,01,2021-10-07_22h25.55.888,WordFreq,2021.1.4,Win32,59.01445854,0,87,87,7,1,214
,,w,1,0.7661,,,,,,pedagogue,word,w,,A,f,19,01,2021-10-07_22h25.55.888,WordFreq,2021.1.4,Win32,59.01445854,0,88,88,23,1,1
,,w,1,0.5863,,,,,,hospitality,word,w,,A,f,19,01,2021-10-07_22h25.55.888,WordFreq,2021.1.4,Win32,59.01445854,0,89,89,45,1,6
,,w,1,0.5641,,,,,,initiative,word,w,,A,f,19,01,2021-10-07_22h25.55.888,WordFreq,2021.1.4,Win32,59.01445854,0,90,90,47,1,32
,,n,1,0.6338,,,,,,cheroteble,nonword,n,,A,f,19,01,2021-10-07_22h25.55.888,WordFreq,2021.1.4,Win32,59.01445854,0,91,91,92,1,5
,,w,1,0.8103,,,,,,psychical,word,w,,A,f,19,01,2021-10-07_22h25.55.888,WordFreq,2021.1.4,Win32,59.01445854,0,92,92,24,1,4
,,n,1,0.7783,,,,,,onotoetove,nonword,n,,A,f,19,01,2021-10-07_22h25.55.888,WordFreq,2021.1.4,Win32,59.01445854,0,93,93,107,1,32
,,n,1,0.6446,,,,,,beetofoc,nonword,n,,A,f,19,01,2021-10-07_22h25.55.888,WordFreq,2021.1.4,Win32,59.01445854,0,94,94,74,1,1
,,n,1,0.7095,,,,,,peontong,nonword,n,,A,f,19,01,2021-10-07_22h25.55.888,WordFreq,2021.1.4,Win32,59.01445854,0,95,95,82,1,59
,,w,1,0.6388,,,,,,poetry,word,w,,A,f,19,01,2021-10-07_22h25.55.888,WordFreq,2021.1.4,Win32,59.01445854,0,96,96,26,1,88
,,n,1,0.7731,,,,,,pietry,nonword,n,,A,f,19,01,2021-10-07_22h25.55.888,WordFreq,2021.1.4,Win32,59.01445854,0,97,97,86,1,88
,,w,1,0.8149,,,,,,automobile,word,w,,A,f,19,01,2021-10-07_22h25.55.888,WordFreq,2021.1.4,Win32,59.01445854,0,98,98,5,1,50
,,w,1,0.6818,,,,,,inductive,word,w,,A,f,19,01,2021-10-07_22h25.55.888,WordFreq,2021.1.4,Win32,59.01445854,0,99,99,46,1,1
,,w,1,0.9682,,,,,,government,word,w,,A,f,19,01,2021-10-07_22h25.55.888,WordFreq,2021.1.4,Win32,59.01445854,0,100,100,44,1,417
,,w,1,0.973,,,,,,knowledge,word,w,,A,f,19,01,2021-10-07_22h25.55.888,WordFreq,2021.1.4,Win32,59.01445854,0,101,101,59,1,145
,,n,1,0.5907,,,,,,urchastre,nonword,n,,A,f,19,01,2021-10-07_22h25.55.888,WordFreq,2021.1.4,Win32,59.01445854,0,102,102,80,1,60
,,w,1,0.7512,,,,,,friendly,word,w,,A,f,19,01,2021-10-07_22h25.55.888,WordFreq,2021.1.4,Win32,59.01445854,0,103,103,8,1,61
,,n,1,0.5477,,,,,,scoentofoc,nonword,n,,A,f,19,01,2021-10-07_22h25.55.888,WordFreq,2021.1.4,Win32,59.01445854,0,104,104,93,1,86
,,w,1,0.8781,,,,,,painting,word,w,,A,f,19,01,2021-10-07_22h25.55.888,WordFreq,2021.1.4,Win32,59.01445854,0,105,105,22,1,59
,,w,1,0.8242,,,,,,liberties,word,w,,A,f,19,01,2021-10-07_22h25.55.888,WordFreq,2021.1.4,Win32,59.01445854,0,106,106,4,1,8
,,n,1,0.6994,,,,,,judocoery,nonword,n,,A,f,19,01,2021-10-07_22h25.55.888,WordFreq,2021.1.4,Win32,59.01445854,0,107,107,114,1,3
,,n,1,0.7009,,,,,,sampothy,nonword,n,,A,f,19,01,2021-10-07_22h25.55.888,WordFreq,2021.1.4,Win32,59.01445854,0,108,108,63,1,6
,,w,1,0.6338,,,,,,celestial,word,w,,A,f,19,01,2021-10-07_22h25.55.888,WordFreq,2021.1.4,Win32,59.01445854,0,109,109,30,1,8
,,n,1,0.5439,,,,,,sporotuel,nonword,n,,A,f,19,01,2021-10-07_22h25.55.888,WordFreq,2021.1.4,Win32,59.01445854,0,110,110,72,1,64
,,n,0,0.5816,,,,,,frugality,word,w,,A,f,19,01,2021-10-07_22h25.55.888,WordFreq,2021.1.4,Win32,59.01445854,0,111,111,43,1,2
,,n,1,0.7109,,,,,,alegoes,nonword,n,,A,f,19,01,2021-10-07_22h25.55.888,WordFreq,2021.1.4,Win32,59.01445854,0,112,112,98,1,1
,,w,1,0.9873,,,,,,conviviality,word,w,,A,f,19,01,2021-10-07_22h25.55.888,WordFreq,2021.1.4,Win32,59.01445854,0,113,113,39,1,1
,,w,1,0.7149,,,,,,assets,word,w,,A,f,19,01,2021-10-07_22h25.55.888,WordFreq,2021.1.4,Win32,59.01445854,0,114,114,55,1,13
,,w,1,0.5754,,,,,,churches,word,w,,A,f,19,01,2021-10-07_22h25.55.888,WordFreq,2021.1.4,Win32,59.01445854,0,115,115,36,1,96
,,w,1,0.5526,,,,,,orchestra,word,w,,A,f,19,01,2021-10-07_22h25.55.888,WordFreq,2021.1.4,Win32,59.01445854,0,116,116,20,1,60
,,n,1,0.6755,,,,,,lobertoes,nonword,n,,A,f,19,01,2021-10-07_22h25.55.888,WordFreq,2021.1.4,Win32,59.01445854,0,117,117,64,1,8
,,n,1,0.5321,,,,,,knuwlidge,nonword,n,,A,f,19,01,2021-10-07_22h25.55.888,WordFreq,2021.1.4,Win32,59.01445854,0,118,118,119,1,145
,,w,0,0.5871,,,,,,relogoous,nonword,n,,A,f,19,01,2021-10-07_22h25.55.888,WordFreq,2021.1.4,Win32,59.01445854,0,119,119,81,1,165
