ok1.keys,ok1.rt,resp.keys,resp.corr,resp.rt,practiceTrials.thisRepN,practiceTrials.thisTrialN,practiceTrials.thisN,practiceTrials.thisIndex,practiceTrials.ran,strings,word_nonword,corrans,font,participant,gender (m/f),age,session,date,expName,psychopyVersion,OS,frameRate,trials.thisRepN,trials.thisTrialN,trials.thisN,trials.thisIndex,trials.ran,freq
w,47.3773,w,1,0.6361,0,0,0,3,1,doppleganger,word,w,SS,anonymous?,m,19,03,2021-10-05_19h20.34.320,WordFreq,2021.1.4,Win32,59.9268892,,,,,,
,,w,1,0.4744,0,1,1,0,1,dog,word,w,S,anonymous?,m,19,03,2021-10-05_19h20.34.320,WordFreq,2021.1.4,Win32,59.9268892,,,,,,
,,w,1,0.4326,0,2,2,1,1,house,word,w,SS,anonymous?,m,19,03,2021-10-05_19h20.34.320,WordFreq,2021.1.4,Win32,59.9268892,,,,,,
,,n,1,0.7803,0,3,3,9,1,casterd,nonword,n,SS,anonymous?,m,19,03,2021-10-05_19h20.34.320,WordFreq,2021.1.4,Win32,59.9268892,,,,,,
,,n,1,0.8677,0,4,4,7,1,imleit,nonword,n,SS,anonymous?,m,19,03,2021-10-05_19h20.34.320,WordFreq,2021.1.4,Win32,59.9268892,,,,,,
,,n,1,0.8402,0,5,5,8,1,dipplagungor,nonword,n,S,anonymous?,m,19,03,2021-10-05_19h20.34.320,WordFreq,2021.1.4,Win32,59.9268892,,,,,,
,,w,1,0.8408,0,6,6,2,1,umlaut,word,w,S,anonymous?,m,19,03,2021-10-05_19h20.34.320,WordFreq,2021.1.4,Win32,59.9268892,,,,,,
,,n,1,0.6564,0,7,7,5,1,deg,nonword,n,SS,anonymous?,m,19,03,2021-10-05_19h20.34.320,WordFreq,2021.1.4,Win32,59.9268892,,,,,,
,,w,1,0.6502,0,8,8,4,1,custard,word,w,S,anonymous?,m,19,03,2021-10-05_19h20.34.320,WordFreq,2021.1.4,Win32,59.9268892,,,,,,
,,n,1,0.7222,0,9,9,6,1,haise,nonword,n,S,anonymous?,m,19,03,2021-10-05_19h20.34.320,WordFreq,2021.1.4,Win32,59.9268892,,,,,,
,,n,1,0.6874,,,,,,knuwlidge,nonword,n,,anonymous?,m,19,03,2021-10-05_19h20.34.320,WordFreq,2021.1.4,Win32,59.9268892,0,0,0,119,1,145
,,w,1,0.4477,,,,,,painting,word,w,,anonymous?,m,19,03,2021-10-05_19h20.34.320,WordFreq,2021.1.4,Win32,59.9268892,0,1,1,22,1,59
,,n,1,0.5908,,,,,,relogoous,nonword,n,,anonymous?,m,19,03,2021-10-05_19h20.34.320,WordFreq,2021.1.4,Win32,59.9268892,0,2,2,81,1,165
,,n,1,0.6625,,,,,,otchur,nonword,n,,anonymous?,m,19,03,2021-10-05_19h20.34.320,WordFreq,2021.1.4,Win32,59.9268892,0,3,3,100,1,1
,,w,1,0.5213,,,,,,assets,word,w,,anonymous?,m,19,03,2021-10-05_19h20.34.320,WordFreq,2021.1.4,Win32,59.9268892,0,4,4,55,1,13
,,n,1,0.616,,,,,,chencels,nonword,n,,anonymous?,m,19,03,2021-10-05_19h20.34.320,WordFreq,2021.1.4,Win32,59.9268892,0,5,5,87,1,1
,,w,0,0.5603,,,,,,rivurence,nonword,n,,anonymous?,m,19,03,2021-10-05_19h20.34.320,WordFreq,2021.1.4,Win32,59.9268892,0,6,6,79,1,5
,,n,1,0.7224,,,,,,frageloty,nonword,n,,anonymous?,m,19,03,2021-10-05_19h20.34.320,WordFreq,2021.1.4,Win32,59.9268892,0,7,7,103,1,2
,,w,1,0.8179,,,,,,inductive,word,w,,anonymous?,m,19,03,2021-10-05_19h20.34.320,WordFreq,2021.1.4,Win32,59.9268892,0,8,8,46,1,1
,,w,1,0.8587,,,,,,elegies,word,w,,anonymous?,m,19,03,2021-10-05_19h20.34.320,WordFreq,2021.1.4,Win32,59.9268892,0,9,9,38,1,1
,,n,1,0.6762,,,,,,urchastre,nonword,n,,anonymous?,m,19,03,2021-10-05_19h20.34.320,WordFreq,2021.1.4,Win32,59.9268892,0,10,10,80,1,60
,,w,1,0.6573,,,,,,liberties,word,w,,anonymous?,m,19,03,2021-10-05_19h20.34.320,WordFreq,2021.1.4,Win32,59.9268892,0,11,11,4,1,8
,,n,1,0.7084,,,,,,merket,nonword,n,,anonymous?,m,19,03,2021-10-05_19h20.34.320,WordFreq,2021.1.4,Win32,59.9268892,0,12,12,76,1,133
,,n,1,0.6399,,,,,,calestoel,nonword,n,,anonymous?,m,19,03,2021-10-05_19h20.34.320,WordFreq,2021.1.4,Win32,59.9268892,0,13,13,90,1,8
,,w,1,0.5715,,,,,,religious,word,w,,anonymous?,m,19,03,2021-10-05_19h20.34.320,WordFreq,2021.1.4,Win32,59.9268892,0,14,14,21,1,165
,,w,1,0.6778,,,,,,barrister,word,w,,anonymous?,m,19,03,2021-10-05_19h20.34.320,WordFreq,2021.1.4,Win32,59.9268892,0,15,15,11,1,1
,,w,1,0.6623,,,,,,mundane,word,w,,anonymous?,m,19,03,2021-10-05_19h20.34.320,WordFreq,2021.1.4,Win32,59.9268892,0,16,16,50,1,3
,,w,1,0.5466,,,,,,celestial,word,w,,anonymous?,m,19,03,2021-10-05_19h20.34.320,WordFreq,2021.1.4,Win32,59.9268892,0,17,17,30,1,8
,,w,1,0.6705,,,,,,knowledge,word,w,,anonymous?,m,19,03,2021-10-05_19h20.34.320,WordFreq,2021.1.4,Win32,59.9268892,0,18,18,59,1,145
,,n,1,0.6291,,,,,,gavirnmunt,nonword,n,,anonymous?,m,19,03,2021-10-05_19h20.34.320,WordFreq,2021.1.4,Win32,59.9268892,0,19,19,104,1,417
,,n,0,1.1916,,,,,,beatific,word,w,,anonymous?,m,19,03,2021-10-05_19h20.34.320,WordFreq,2021.1.4,Win32,59.9268892,0,20,20,14,1,1
,,n,1,1.0095,,,,,,aurthly,nonword,n,,anonymous?,m,19,03,2021-10-05_19h20.34.320,WordFreq,2021.1.4,Win32,59.9268892,0,21,21,91,1,6
,,w,1,0.6663,,,,,,scientific,word,w,,anonymous?,m,19,03,2021-10-05_19h20.34.320,WordFreq,2021.1.4,Win32,59.9268892,0,22,22,33,1,86
,,n,0,1.4333,,,,,,conviviality,word,w,,anonymous?,m,19,03,2021-10-05_19h20.34.320,WordFreq,2021.1.4,Win32,59.9268892,0,23,23,39,1,1
,,w,1,0.7015,,,,,,rebuttal,word,w,,anonymous?,m,19,03,2021-10-05_19h20.34.320,WordFreq,2021.1.4,Win32,59.9268892,0,24,24,56,1,2
,,n,1,0.6815,,,,,,eltruostoc,nonword,n,,anonymous?,m,19,03,2021-10-05_19h20.34.320,WordFreq,2021.1.4,Win32,59.9268892,0,25,25,109,1,1
,,w,1,0.7085,,,,,,assiduous,word,w,,anonymous?,m,19,03,2021-10-05_19h20.34.320,WordFreq,2021.1.4,Win32,59.9268892,0,26,26,0,1,1
,,w,1,0.8886,,,,,,uncoerced,word,w,,anonymous?,m,19,03,2021-10-05_19h20.34.320,WordFreq,2021.1.4,Win32,59.9268892,0,27,27,53,1,1
,,w,1,0.6257,,,,,,poetry,word,w,,anonymous?,m,19,03,2021-10-05_19h20.34.320,WordFreq,2021.1.4,Win32,59.9268892,0,28,28,26,1,88
,,w,1,0.5881,,,,,,picture,word,w,,anonymous?,m,19,03,2021-10-05_19h20.34.320,WordFreq,2021.1.4,Win32,59.9268892,0,29,29,25,1,162
,,n,1,0.6267,,,,,,sevongs,nonword,n,,anonymous?,m,19,03,2021-10-05_19h20.34.320,WordFreq,2021.1.4,Win32,59.9268892,0,30,30,78,1,23
,,n,1,0.8228,,,,,,onductove,nonword,n,,anonymous?,m,19,03,2021-10-05_19h20.34.320,WordFreq,2021.1.4,Win32,59.9268892,0,31,31,106,1,1
,,w,1,0.8646,,,,,,percipience,word,w,,anonymous?,m,19,03,2021-10-05_19h20.34.320,WordFreq,2021.1.4,Win32,59.9268892,0,32,32,57,1,1
,,w,1,0.6257,,,,,,psychical,word,w,,anonymous?,m,19,03,2021-10-05_19h20.34.320,WordFreq,2021.1.4,Win32,59.9268892,0,33,33,24,1,4
,,n,1,0.7866,,,,,,cindalence,nonword,n,,anonymous?,m,19,03,2021-10-05_19h20.34.320,WordFreq,2021.1.4,Win32,59.9268892,0,34,34,66,1,1
,,w,1,0.5929,,,,,,lawyer,word,w,,anonymous?,m,19,03,2021-10-05_19h20.34.320,WordFreq,2021.1.4,Win32,59.9268892,0,35,35,1,1,43
,,n,1,0.7601,,,,,,bruker,nonword,n,,anonymous?,m,19,03,2021-10-05_19h20.34.320,WordFreq,2021.1.4,Win32,59.9268892,0,36,36,95,1,1
,,w,1,0.6201,,,,,,education,word,w,,anonymous?,m,19,03,2021-10-05_19h20.34.320,WordFreq,2021.1.4,Win32,59.9268892,0,37,37,7,1,214
,,n,1,0.6287,,,,,,servoce,nonword,n,,anonymous?,m,19,03,2021-10-05_19h20.34.320,WordFreq,2021.1.4,Win32,59.9268892,0,38,38,75,1,313
,,w,1,0.6347,,,,,,churches,word,w,,anonymous?,m,19,03,2021-10-05_19h20.34.320,WordFreq,2021.1.4,Win32,59.9268892,0,39,39,36,1,96
,,n,1,0.7067,,,,,,poctere,nonword,n,,anonymous?,m,19,03,2021-10-05_19h20.34.320,WordFreq,2021.1.4,Win32,59.9268892,0,40,40,85,1,162
,,n,1,0.6896,,,,,,padegigue,nonword,n,,anonymous?,m,19,03,2021-10-05_19h20.34.320,WordFreq,2021.1.4,Win32,59.9268892,0,41,41,83,1,1
,,n,1,0.5736,,,,,,alegoes,nonword,n,,anonymous?,m,19,03,2021-10-05_19h20.34.320,WordFreq,2021.1.4,Win32,59.9268892,0,42,42,98,1,1
,,n,1,0.9826,,,,,,unsumble,nonword,n,,anonymous?,m,19,03,2021-10-05_19h20.34.320,WordFreq,2021.1.4,Win32,59.9268892,0,43,43,102,1,11
,,n,1,0.6109,,,,,,beetofoc,nonword,n,,anonymous?,m,19,03,2021-10-05_19h20.34.320,WordFreq,2021.1.4,Win32,59.9268892,0,44,44,74,1,1
,,n,1,0.691,,,,,,physocs,nonword,n,,anonymous?,m,19,03,2021-10-05_19h20.34.320,WordFreq,2021.1.4,Win32,59.9268892,0,45,45,62,1,22
,,n,1,0.6708,,,,,,robuttel,nonword,n,,anonymous?,m,19,03,2021-10-05_19h20.34.320,WordFreq,2021.1.4,Win32,59.9268892,0,46,46,116,1,2
,,n,0,0.8343,,,,,,etcher,word,w,,anonymous?,m,19,03,2021-10-05_19h20.34.320,WordFreq,2021.1.4,Win32,59.9268892,0,47,47,40,1,1
,,w,1,0.6053,,,,,,limousine,word,w,,anonymous?,m,19,03,2021-10-05_19h20.34.320,WordFreq,2021.1.4,Win32,59.9268892,0,48,48,10,1,4
,,n,1,0.8865,,,,,,essets,nonword,n,,anonymous?,m,19,03,2021-10-05_19h20.34.320,WordFreq,2021.1.4,Win32,59.9268892,0,49,49,115,1,13
,,n,1,0.7245,,,,,,lomousone,nonword,n,,anonymous?,m,19,03,2021-10-05_19h20.34.320,WordFreq,2021.1.4,Win32,59.9268892,0,50,50,70,1,4
,,w,1,0.8342,,,,,,frugality,word,w,,anonymous?,m,19,03,2021-10-05_19h20.34.320,WordFreq,2021.1.4,Win32,59.9268892,0,51,51,43,1,2
,,n,1,0.6363,,,,,,stetostocs,nonword,n,,anonymous?,m,19,03,2021-10-05_19h20.34.320,WordFreq,2021.1.4,Win32,59.9268892,0,52,52,69,1,1
,,n,1,0.7008,,,,,,sampothy,nonword,n,,anonymous?,m,19,03,2021-10-05_19h20.34.320,WordFreq,2021.1.4,Win32,59.9268892,0,53,53,63,1,6
,,n,1,1.031,,,,,,pietry,nonword,n,,anonymous?,m,19,03,2021-10-05_19h20.34.320,WordFreq,2021.1.4,Win32,59.9268892,0,54,54,86,1,88
,,n,1,0.7033,,,,,,huspoteloty,nonword,n,,anonymous?,m,19,03,2021-10-05_19h20.34.320,WordFreq,2021.1.4,Win32,59.9268892,0,55,55,105,1,6
,,w,1,0.5226,,,,,,automobile,word,w,,anonymous?,m,19,03,2021-10-05_19h20.34.320,WordFreq,2021.1.4,Win32,59.9268892,0,56,56,5,1,50
,,n,1,0.7004,,,,,,erudotoon,nonword,n,,anonymous?,m,19,03,2021-10-05_19h20.34.320,WordFreq,2021.1.4,Win32,59.9268892,0,57,57,101,1,1
,,w,1,0.5487,,,,,,literary,word,w,,anonymous?,m,19,03,2021-10-05_19h20.34.320,WordFreq,2021.1.4,Win32,59.9268892,0,58,58,13,1,78
,,w,1,0.7058,,,,,,metaphor,word,w,,anonymous?,m,19,03,2021-10-05_19h20.34.320,WordFreq,2021.1.4,Win32,59.9268892,0,59,59,34,1,5
,,w,1,0.6128,,,,,,earthly,word,w,,anonymous?,m,19,03,2021-10-05_19h20.34.320,WordFreq,2021.1.4,Win32,59.9268892,0,60,60,31,1,6
,,n,1,0.9066,,,,,,convovoeloty,nonword,n,,anonymous?,m,19,03,2021-10-05_19h20.34.320,WordFreq,2021.1.4,Win32,59.9268892,0,61,61,99,1,1
,,w,1,0.6258,,,,,,debating,word,w,,anonymous?,m,19,03,2021-10-05_19h20.34.320,WordFreq,2021.1.4,Win32,59.9268892,0,62,62,37,1,4
,,n,1,0.608,,,,,,lobertoes,nonword,n,,anonymous?,m,19,03,2021-10-05_19h20.34.320,WordFreq,2021.1.4,Win32,59.9268892,0,63,63,64,1,8
,,w,1,0.534,,,,,,savings,word,w,,anonymous?,m,19,03,2021-10-05_19h20.34.320,WordFreq,2021.1.4,Win32,59.9268892,0,64,64,18,1,23
,,w,1,0.8512,,,,,,pedagogue,word,w,,anonymous?,m,19,03,2021-10-05_19h20.34.320,WordFreq,2021.1.4,Win32,59.9268892,0,65,65,23,1,1
,,n,1,0.6431,,,,,,cheroteble,nonword,n,,anonymous?,m,19,03,2021-10-05_19h20.34.320,WordFreq,2021.1.4,Win32,59.9268892,0,66,66,92,1,5
,,n,1,0.6414,,,,,,onotoetove,nonword,n,,anonymous?,m,19,03,2021-10-05_19h20.34.320,WordFreq,2021.1.4,Win32,59.9268892,0,67,67,107,1,32
,,w,1,0.7201,,,,,,vignette,word,w,,anonymous?,m,19,03,2021-10-05_19h20.34.320,WordFreq,2021.1.4,Win32,59.9268892,0,68,68,48,1,2
,,w,1,0.6867,,,,,,market,word,w,,anonymous?,m,19,03,2021-10-05_19h20.34.320,WordFreq,2021.1.4,Win32,59.9268892,0,69,69,16,1,133
,,n,1,0.632,,,,,,letarery,nonword,n,,anonymous?,m,19,03,2021-10-05_19h20.34.320,WordFreq,2021.1.4,Win32,59.9268892,0,70,70,73,1,78
,,w,1,0.6674,,,,,,spiritual,word,w,,anonymous?,m,19,03,2021-10-05_19h20.34.320,WordFreq,2021.1.4,Win32,59.9268892,0,71,71,12,1,64
,,w,1,0.6316,,,,,,statistics,word,w,,anonymous?,m,19,03,2021-10-05_19h20.34.320,WordFreq,2021.1.4,Win32,59.9268892,0,72,72,9,1,1
,,n,1,0.6815,,,,,,ontellectiel,nonword,n,,anonymous?,m,19,03,2021-10-05_19h20.34.320,WordFreq,2021.1.4,Win32,59.9268892,0,73,73,111,1,68
,,w,1,0.6174,,,,,,judiciary,word,w,,anonymous?,m,19,03,2021-10-05_19h20.34.320,WordFreq,2021.1.4,Win32,59.9268892,0,74,74,54,1,3
,,n,1,0.8177,,,,,,essaduoas,nonword,n,,anonymous?,m,19,03,2021-10-05_19h20.34.320,WordFreq,2021.1.4,Win32,59.9268892,0,75,75,60,1,1
,,n,0,1.2515,,,,,,erudition,word,w,,anonymous?,m,19,03,2021-10-05_19h20.34.320,WordFreq,2021.1.4,Win32,59.9268892,0,76,76,41,1,1
,,n,1,0.7117,,,,,,theostoc,nonword,n,,anonymous?,m,19,03,2021-10-05_19h20.34.320,WordFreq,2021.1.4,Win32,59.9268892,0,77,77,118,1,1
,,n,1,0.7685,,,,,,vognette,nonword,n,,anonymous?,m,19,03,2021-10-05_19h20.34.320,WordFreq,2021.1.4,Win32,59.9268892,0,78,78,108,1,2
,,n,1,0.6666,,,,,,mutephar,nonword,n,,anonymous?,m,19,03,2021-10-05_19h20.34.320,WordFreq,2021.1.4,Win32,59.9268892,0,79,79,94,1,5
,,w,1,0.7092,,,,,,condolence,word,w,,anonymous?,m,19,03,2021-10-05_19h20.34.320,WordFreq,2021.1.4,Win32,59.9268892,0,80,80,6,1,1
,,n,1,0.8334,,,,,,peontong,nonword,n,,anonymous?,m,19,03,2021-10-05_19h20.34.320,WordFreq,2021.1.4,Win32,59.9268892,0,81,81,82,1,59
,,n,1,0.6111,,,,,,charches,nonword,n,,anonymous?,m,19,03,2021-10-05_19h20.34.320,WordFreq,2021.1.4,Win32,59.9268892,0,82,82,96,1,96
,,n,1,0.6502,,,,,,froandly,nonword,n,,anonymous?,m,19,03,2021-10-05_19h20.34.320,WordFreq,2021.1.4,Win32,59.9268892,0,83,83,68,1,61
,,w,1,0.6519,,,,,,sympathy,word,w,,anonymous?,m,19,03,2021-10-05_19h20.34.320,WordFreq,2021.1.4,Win32,59.9268892,0,84,84,3,1,6
,,w,1,0.6694,,,,,,charitable,word,w,,anonymous?,m,19,03,2021-10-05_19h20.34.320,WordFreq,2021.1.4,Win32,59.9268892,0,85,85,32,1,5
,,w,1,0.853,,,,,,benign,word,w,,anonymous?,m,19,03,2021-10-05_19h20.34.320,WordFreq,2021.1.4,Win32,59.9268892,0,86,86,17,1,1
,,n,1,0.6215,,,,,,eutomobole,nonword,n,,anonymous?,m,19,03,2021-10-05_19h20.34.320,WordFreq,2021.1.4,Win32,59.9268892,0,87,87,65,1,50
,,w,1,0.6139,,,,,,government,word,w,,anonymous?,m,19,03,2021-10-05_19h20.34.320,WordFreq,2021.1.4,Win32,59.9268892,0,88,88,44,1,417
,,w,1,0.5777,,,,,,heavenly,word,w,,anonymous?,m,19,03,2021-10-05_19h20.34.320,WordFreq,2021.1.4,Win32,59.9268892,0,89,89,29,1,9
,,n,1,0.7753,,,,,,huevanly,nonword,n,,anonymous?,m,19,03,2021-10-05_19h20.34.320,WordFreq,2021.1.4,Win32,59.9268892,0,90,90,89,1,9
,,n,1,1.2369,,,,,,mundene,nonword,n,,anonymous?,m,19,03,2021-10-05_19h20.34.320,WordFreq,2021.1.4,Win32,59.9268892,0,91,91,110,1,3
,,n,1,0.6507,,,,,,judocoery,nonword,n,,anonymous?,m,19,03,2021-10-05_19h20.34.320,WordFreq,2021.1.4,Win32,59.9268892,0,92,92,114,1,3
,,w,1,0.7678,,,,,,service,word,w,,anonymous?,m,19,03,2021-10-05_19h20.34.320,WordFreq,2021.1.4,Win32,59.9268892,0,93,93,15,1,313
,,n,1,0.6217,,,,,,percopoence,nonword,n,,anonymous?,m,19,03,2021-10-05_19h20.34.320,WordFreq,2021.1.4,Win32,59.9268892,0,94,94,117,1,1
,,n,1,0.585,,,,,,berroster,nonword,n,,anonymous?,m,19,03,2021-10-05_19h20.34.320,WordFreq,2021.1.4,Win32,59.9268892,0,95,95,71,1,1
,,n,1,0.6612,,,,,,debetong,nonword,n,,anonymous?,m,19,03,2021-10-05_19h20.34.320,WordFreq,2021.1.4,Win32,59.9268892,0,96,96,97,1,4
,,w,1,0.5872,,,,,,physics,word,w,,anonymous?,m,19,03,2021-10-05_19h20.34.320,WordFreq,2021.1.4,Win32,59.9268892,0,97,97,2,1,22
,,w,1,0.6454,,,,,,intellectual,word,w,,anonymous?,m,19,03,2021-10-05_19h20.34.320,WordFreq,2021.1.4,Win32,59.9268892,0,98,98,51,1,68
,,n,1,0.6091,,,,,,benogn,nonword,n,,anonymous?,m,19,03,2021-10-05_19h20.34.320,WordFreq,2021.1.4,Win32,59.9268892,0,99,99,77,1,1
,,n,1,0.8272,,,,,,emoceble,nonword,n,,anonymous?,m,19,03,2021-10-05_19h20.34.320,WordFreq,2021.1.4,Win32,59.9268892,0,100,100,112,1,1
,,w,1,0.7322,,,,,,amicable,word,w,,anonymous?,m,19,03,2021-10-05_19h20.34.320,WordFreq,2021.1.4,Win32,59.9268892,0,101,101,52,1,1
,,n,0,0.8201,,,,,,chancels,word,w,,anonymous?,m,19,03,2021-10-05_19h20.34.320,WordFreq,2021.1.4,Win32,59.9268892,0,102,102,27,1,1
,,w,0,0.6008,,,,,,ancourced,nonword,n,,anonymous?,m,19,03,2021-10-05_19h20.34.320,WordFreq,2021.1.4,Win32,59.9268892,0,103,103,113,1,1
,,w,1,0.6342,,,,,,economics,word,w,,anonymous?,m,19,03,2021-10-05_19h20.34.320,WordFreq,2021.1.4,Win32,59.9268892,0,104,104,28,1,17
,,w,1,0.7494,,,,,,initiative,word,w,,anonymous?,m,19,03,2021-10-05_19h20.34.320,WordFreq,2021.1.4,Win32,59.9268892,0,105,105,47,1,32
,,n,1,0.6676,,,,,,acinamocs,nonword,n,,anonymous?,m,19,03,2021-10-05_19h20.34.320,WordFreq,2021.1.4,Win32,59.9268892,0,106,106,88,1,17
,,n,1,0.6677,,,,,,lewyor,nonword,n,,anonymous?,m,19,03,2021-10-05_19h20.34.320,WordFreq,2021.1.4,Win32,59.9268892,0,107,107,61,1,43
,,w,1,0.7009,,,,,,reverence,word,w,,anonymous?,m,19,03,2021-10-05_19h20.34.320,WordFreq,2021.1.4,Win32,59.9268892,0,108,108,19,1,5
,,n,1,0.6342,,,,,,sporotuel,nonword,n,,anonymous?,m,19,03,2021-10-05_19h20.34.320,WordFreq,2021.1.4,Win32,59.9268892,0,109,109,72,1,64
,,w,1,0.5507,,,,,,friendly,word,w,,anonymous?,m,19,03,2021-10-05_19h20.34.320,WordFreq,2021.1.4,Win32,59.9268892,0,110,110,8,1,61
,,n,1,0.5673,,,,,,scoentofoc,nonword,n,,anonymous?,m,19,03,2021-10-05_19h20.34.320,WordFreq,2021.1.4,Win32,59.9268892,0,111,111,93,1,86
,,w,1,0.7149,,,,,,theistic,word,w,,anonymous?,m,19,03,2021-10-05_19h20.34.320,WordFreq,2021.1.4,Win32,59.9268892,0,112,112,58,1,1
,,n,1,1.0678,,,,,,iducetuon,nonword,n,,anonymous?,m,19,03,2021-10-05_19h20.34.320,WordFreq,2021.1.4,Win32,59.9268892,0,113,113,67,1,214
,,w,1,0.6997,,,,,,hospitality,word,w,,anonymous?,m,19,03,2021-10-05_19h20.34.320,WordFreq,2021.1.4,Win32,59.9268892,0,114,114,45,1,6
,,n,1,0.6828,,,,,,psychocel,nonword,n,,anonymous?,m,19,03,2021-10-05_19h20.34.320,WordFreq,2021.1.4,Win32,59.9268892,0,115,115,84,1,4
,,w,1,0.6535,,,,,,altruistic,word,w,,anonymous?,m,19,03,2021-10-05_19h20.34.320,WordFreq,2021.1.4,Win32,59.9268892,0,116,116,49,1,1
,,w,1,0.6534,,,,,,orchestra,word,w,,anonymous?,m,19,03,2021-10-05_19h20.34.320,WordFreq,2021.1.4,Win32,59.9268892,0,117,117,20,1,60
,,w,1,0.7369,,,,,,broker,word,w,,anonymous?,m,19,03,2021-10-05_19h20.34.320,WordFreq,2021.1.4,Win32,59.9268892,0,118,118,35,1,1
,,w,1,0.8343,,,,,,ensemble,word,w,,anonymous?,m,19,03,2021-10-05_19h20.34.320,WordFreq,2021.1.4,Win32,59.9268892,0,119,119,42,1,11
