ok1.keys,ok1.rt,resp.keys,resp.corr,resp.rt,practiceTrials.thisRepN,practiceTrials.thisTrialN,practiceTrials.thisN,practiceTrials.thisIndex,practiceTrials.ran,strings,word_nonword,corrans,font,participant,gender (m/f),age,session,date,expName,psychopyVersion,OS,frameRate,trials.thisRepN,trials.thisTrialN,trials.thisN,trials.thisIndex,trials.ran,freq
space,1971.2405,w,0,2.3339,0,0,0,7,1,imleit,nonword,n,SS,cc,f,21,03,2021-10-04_17h46.53.865,WordFreq,2021.1.4,Win32,59.97001499,,,,,,
,,w,1,1.333,0,1,1,1,1,house,word,w,SS,cc,f,21,03,2021-10-04_17h46.53.865,WordFreq,2021.1.4,Win32,59.97001499,,,,,,
,,n,1,0.9339,0,2,2,5,1,deg,nonword,n,SS,cc,f,21,03,2021-10-04_17h46.53.865,WordFreq,2021.1.4,Win32,59.97001499,,,,,,
,,n,1,1.8662,0,3,3,8,1,dipplagungor,nonword,n,S,cc,f,21,03,2021-10-04_17h46.53.865,WordFreq,2021.1.4,Win32,59.97001499,,,,,,
,,n,1,0.9677,0,4,4,6,1,haise,nonword,n,S,cc,f,21,03,2021-10-04_17h46.53.865,WordFreq,2021.1.4,Win32,59.97001499,,,,,,
,,w,0,0.9579,0,5,5,9,1,casterd,nonword,n,SS,cc,f,21,03,2021-10-04_17h46.53.865,WordFreq,2021.1.4,Win32,59.97001499,,,,,,
,,n,0,2.1285,0,6,6,2,1,umlaut,word,w,S,cc,f,21,03,2021-10-04_17h46.53.865,WordFreq,2021.1.4,Win32,59.97001499,,,,,,
,,w,1,0.6824,0,7,7,0,1,dog,word,w,S,cc,f,21,03,2021-10-04_17h46.53.865,WordFreq,2021.1.4,Win32,59.97001499,,,,,,
,,w,1,0.9746,0,8,8,3,1,doppleganger,word,w,SS,cc,f,21,03,2021-10-04_17h46.53.865,WordFreq,2021.1.4,Win32,59.97001499,,,,,,
,,w,1,0.7978,0,9,9,4,1,custard,word,w,S,cc,f,21,03,2021-10-04_17h46.53.865,WordFreq,2021.1.4,Win32,59.97001499,,,,,,
,,n,1,0.7682,,,,,,knuwlidge,nonword,n,,cc,f,21,03,2021-10-04_17h46.53.865,WordFreq,2021.1.4,Win32,59.97001499,0,0,0,119,1,145
,,n,1,0.7361,,,,,,eutomobole,nonword,n,,cc,f,21,03,2021-10-04_17h46.53.865,WordFreq,2021.1.4,Win32,59.97001499,0,1,1,65,1,50
,,n,0,0.8809,,,,,,conviviality,word,w,,cc,f,21,03,2021-10-04_17h46.53.865,WordFreq,2021.1.4,Win32,59.97001499,0,2,2,39,1,1
,,n,1,0.7902,,,,,,debetong,nonword,n,,cc,f,21,03,2021-10-04_17h46.53.865,WordFreq,2021.1.4,Win32,59.97001499,0,3,3,97,1,4
,,n,1,1.3003,,,,,,frageloty,nonword,n,,cc,f,21,03,2021-10-04_17h46.53.865,WordFreq,2021.1.4,Win32,59.97001499,0,4,4,103,1,2
,,w,0,0.7562,,,,,,froandly,nonword,n,,cc,f,21,03,2021-10-04_17h46.53.865,WordFreq,2021.1.4,Win32,59.97001499,0,5,5,68,1,61
,,n,1,0.8217,,,,,,ontellectiel,nonword,n,,cc,f,21,03,2021-10-04_17h46.53.865,WordFreq,2021.1.4,Win32,59.97001499,0,6,6,111,1,68
,,w,1,1.0081,,,,,,vignette,word,w,,cc,f,21,03,2021-10-04_17h46.53.865,WordFreq,2021.1.4,Win32,59.97001499,0,7,7,48,1,2
,,w,1,0.9305,,,,,,intellectual,word,w,,cc,f,21,03,2021-10-04_17h46.53.865,WordFreq,2021.1.4,Win32,59.97001499,0,8,8,51,1,68
,,n,1,0.7394,,,,,,otchur,nonword,n,,cc,f,21,03,2021-10-04_17h46.53.865,WordFreq,2021.1.4,Win32,59.97001499,0,9,9,100,1,1
,,w,1,1.5333,,,,,,erudition,word,w,,cc,f,21,03,2021-10-04_17h46.53.865,WordFreq,2021.1.4,Win32,59.97001499,0,10,10,41,1,1
,,w,1,1.3839,,,,,,pedagogue,word,w,,cc,f,21,03,2021-10-04_17h46.53.865,WordFreq,2021.1.4,Win32,59.97001499,0,11,11,23,1,1
,,w,1,1.1329,,,,,,chancels,word,w,,cc,f,21,03,2021-10-04_17h46.53.865,WordFreq,2021.1.4,Win32,59.97001499,0,12,12,27,1,1
,,n,0,2.2,,,,,,initiative,word,w,,cc,f,21,03,2021-10-04_17h46.53.865,WordFreq,2021.1.4,Win32,59.97001499,0,13,13,47,1,32
,,n,1,1.0532,,,,,,aurthly,nonword,n,,cc,f,21,03,2021-10-04_17h46.53.865,WordFreq,2021.1.4,Win32,59.97001499,0,14,14,91,1,6
,,w,0,0.7602,,,,,,essets,nonword,n,,cc,f,21,03,2021-10-04_17h46.53.865,WordFreq,2021.1.4,Win32,59.97001499,0,15,15,115,1,13
,,n,1,0.7701,,,,,,ancourced,nonword,n,,cc,f,21,03,2021-10-04_17h46.53.865,WordFreq,2021.1.4,Win32,59.97001499,0,16,16,113,1,1
,,w,1,1.3906,,,,,,metaphor,word,w,,cc,f,21,03,2021-10-04_17h46.53.865,WordFreq,2021.1.4,Win32,59.97001499,0,17,17,34,1,5
,,n,1,0.7183,,,,,,scoentofoc,nonword,n,,cc,f,21,03,2021-10-04_17h46.53.865,WordFreq,2021.1.4,Win32,59.97001499,0,18,18,93,1,86
,,n,1,1.3113,,,,,,cindalence,nonword,n,,cc,f,21,03,2021-10-04_17h46.53.865,WordFreq,2021.1.4,Win32,59.97001499,0,19,19,66,1,1
,,w,1,0.6931,,,,,,orchestra,word,w,,cc,f,21,03,2021-10-04_17h46.53.865,WordFreq,2021.1.4,Win32,59.97001499,0,20,20,20,1,60
,,w,1,0.6678,,,,,,literary,word,w,,cc,f,21,03,2021-10-04_17h46.53.865,WordFreq,2021.1.4,Win32,59.97001499,0,21,21,13,1,78
,,n,0,0.7033,,,,,,benign,word,w,,cc,f,21,03,2021-10-04_17h46.53.865,WordFreq,2021.1.4,Win32,59.97001499,0,22,22,17,1,1
,,n,0,0.8175,,,,,,etcher,word,w,,cc,f,21,03,2021-10-04_17h46.53.865,WordFreq,2021.1.4,Win32,59.97001499,0,23,23,40,1,1
,,n,1,0.6412,,,,,,mundene,nonword,n,,cc,f,21,03,2021-10-04_17h46.53.865,WordFreq,2021.1.4,Win32,59.97001499,0,24,24,110,1,3
,,w,1,0.689,,,,,,inductive,word,w,,cc,f,21,03,2021-10-04_17h46.53.865,WordFreq,2021.1.4,Win32,59.97001499,0,25,25,46,1,1
,,w,0,0.8178,,,,,,cheroteble,nonword,n,,cc,f,21,03,2021-10-04_17h46.53.865,WordFreq,2021.1.4,Win32,59.97001499,0,26,26,92,1,5
,,w,1,0.818,,,,,,assiduous,word,w,,cc,f,21,03,2021-10-04_17h46.53.865,WordFreq,2021.1.4,Win32,59.97001499,0,27,27,0,1,1
,,n,0,0.9003,,,,,,charitable,word,w,,cc,f,21,03,2021-10-04_17h46.53.865,WordFreq,2021.1.4,Win32,59.97001499,0,28,28,32,1,5
,,w,1,0.9557,,,,,,beatific,word,w,,cc,f,21,03,2021-10-04_17h46.53.865,WordFreq,2021.1.4,Win32,59.97001499,0,29,29,14,1,1
,,w,1,0.8257,,,,,,reverence,word,w,,cc,f,21,03,2021-10-04_17h46.53.865,WordFreq,2021.1.4,Win32,59.97001499,0,30,30,19,1,5
,,w,1,0.8635,,,,,,physics,word,w,,cc,f,21,03,2021-10-04_17h46.53.865,WordFreq,2021.1.4,Win32,59.97001499,0,31,31,2,1,22
,,n,1,0.8305,,,,,,convovoeloty,nonword,n,,cc,f,21,03,2021-10-04_17h46.53.865,WordFreq,2021.1.4,Win32,59.97001499,0,32,32,99,1,1
,,w,1,0.823,,,,,,ensemble,word,w,,cc,f,21,03,2021-10-04_17h46.53.865,WordFreq,2021.1.4,Win32,59.97001499,0,33,33,42,1,11
,,n,0,0.7937,,,,,,celestial,word,w,,cc,f,21,03,2021-10-04_17h46.53.865,WordFreq,2021.1.4,Win32,59.97001499,0,34,34,30,1,8
,,n,1,0.7842,,,,,,urchastre,nonword,n,,cc,f,21,03,2021-10-04_17h46.53.865,WordFreq,2021.1.4,Win32,59.97001499,0,35,35,80,1,60
,,w,1,0.6513,,,,,,broker,word,w,,cc,f,21,03,2021-10-04_17h46.53.865,WordFreq,2021.1.4,Win32,59.97001499,0,36,36,35,1,1
,,w,0,0.7509,,,,,,psychocel,nonword,n,,cc,f,21,03,2021-10-04_17h46.53.865,WordFreq,2021.1.4,Win32,59.97001499,0,37,37,84,1,4
,,n,1,1.4007,,,,,,lewyor,nonword,n,,cc,f,21,03,2021-10-04_17h46.53.865,WordFreq,2021.1.4,Win32,59.97001499,0,38,38,61,1,43
,,n,0,0.7965,,,,,,painting,word,w,,cc,f,21,03,2021-10-04_17h46.53.865,WordFreq,2021.1.4,Win32,59.97001499,0,39,39,22,1,59
,,w,0,1.8285,,,,,,huspoteloty,nonword,n,,cc,f,21,03,2021-10-04_17h46.53.865,WordFreq,2021.1.4,Win32,59.97001499,0,40,40,105,1,6
,,w,0,0.8293,,,,,,essaduoas,nonword,n,,cc,f,21,03,2021-10-04_17h46.53.865,WordFreq,2021.1.4,Win32,59.97001499,0,41,41,60,1,1
,,w,1,1.2145,,,,,,spiritual,word,w,,cc,f,21,03,2021-10-04_17h46.53.865,WordFreq,2021.1.4,Win32,59.97001499,0,42,42,12,1,64
,,n,1,0.9346,,,,,,letarery,nonword,n,,cc,f,21,03,2021-10-04_17h46.53.865,WordFreq,2021.1.4,Win32,59.97001499,0,43,43,73,1,78
,,n,0,0.8844,,,,,,uncoerced,word,w,,cc,f,21,03,2021-10-04_17h46.53.865,WordFreq,2021.1.4,Win32,59.97001499,0,44,44,53,1,1
,,w,1,0.8369,,,,,,economics,word,w,,cc,f,21,03,2021-10-04_17h46.53.865,WordFreq,2021.1.4,Win32,59.97001499,0,45,45,28,1,17
,,n,1,0.7179,,,,,,beetofoc,nonword,n,,cc,f,21,03,2021-10-04_17h46.53.865,WordFreq,2021.1.4,Win32,59.97001499,0,46,46,74,1,1
,,n,1,0.8175,,,,,,sevongs,nonword,n,,cc,f,21,03,2021-10-04_17h46.53.865,WordFreq,2021.1.4,Win32,59.97001499,0,47,47,78,1,23
,,n,1,1.2179,,,,,,benogn,nonword,n,,cc,f,21,03,2021-10-04_17h46.53.865,WordFreq,2021.1.4,Win32,59.97001499,0,48,48,77,1,1
,,w,0,0.6883,,,,,,charches,nonword,n,,cc,f,21,03,2021-10-04_17h46.53.865,WordFreq,2021.1.4,Win32,59.97001499,0,49,49,96,1,96
,,n,0,0.8872,,,,,,scientific,word,w,,cc,f,21,03,2021-10-04_17h46.53.865,WordFreq,2021.1.4,Win32,59.97001499,0,50,50,33,1,86
,,n,1,0.6876,,,,,,vognette,nonword,n,,cc,f,21,03,2021-10-04_17h46.53.865,WordFreq,2021.1.4,Win32,59.97001499,0,51,51,108,1,2
,,n,1,0.8583,,,,,,gavirnmunt,nonword,n,,cc,f,21,03,2021-10-04_17h46.53.865,WordFreq,2021.1.4,Win32,59.97001499,0,52,52,104,1,417
,,n,1,0.858,,,,,,peontong,nonword,n,,cc,f,21,03,2021-10-04_17h46.53.865,WordFreq,2021.1.4,Win32,59.97001499,0,53,53,82,1,59
,,w,1,0.6571,,,,,,market,word,w,,cc,f,21,03,2021-10-04_17h46.53.865,WordFreq,2021.1.4,Win32,59.97001499,0,54,54,16,1,133
,,w,1,0.9503,,,,,,judiciary,word,w,,cc,f,21,03,2021-10-04_17h46.53.865,WordFreq,2021.1.4,Win32,59.97001499,0,55,55,54,1,3
,,w,1,0.6339,,,,,,knowledge,word,w,,cc,f,21,03,2021-10-04_17h46.53.865,WordFreq,2021.1.4,Win32,59.97001499,0,56,56,59,1,145
,,w,0,0.7545,,,,,,merket,nonword,n,,cc,f,21,03,2021-10-04_17h46.53.865,WordFreq,2021.1.4,Win32,59.97001499,0,57,57,76,1,133
,,n,0,0.8341,,,,,,frugality,word,w,,cc,f,21,03,2021-10-04_17h46.53.865,WordFreq,2021.1.4,Win32,59.97001499,0,58,58,43,1,2
,,n,1,0.6681,,,,,,poctere,nonword,n,,cc,f,21,03,2021-10-04_17h46.53.865,WordFreq,2021.1.4,Win32,59.97001499,0,59,59,85,1,162
,,n,1,1.2059,,,,,,padegigue,nonword,n,,cc,f,21,03,2021-10-04_17h46.53.865,WordFreq,2021.1.4,Win32,59.97001499,0,60,60,83,1,1
,,n,1,0.6087,,,,,,rivurence,nonword,n,,cc,f,21,03,2021-10-04_17h46.53.865,WordFreq,2021.1.4,Win32,59.97001499,0,61,61,79,1,5
,,n,0,0.9893,,,,,,mundane,word,w,,cc,f,21,03,2021-10-04_17h46.53.865,WordFreq,2021.1.4,Win32,59.97001499,0,62,62,50,1,3
,,w,1,0.7177,,,,,,education,word,w,,cc,f,21,03,2021-10-04_17h46.53.865,WordFreq,2021.1.4,Win32,59.97001499,0,63,63,7,1,214
,,w,0,0.6203,,,,,,unsumble,nonword,n,,cc,f,21,03,2021-10-04_17h46.53.865,WordFreq,2021.1.4,Win32,59.97001499,0,64,64,102,1,11
,,n,1,0.5871,,,,,,alegoes,nonword,n,,cc,f,21,03,2021-10-04_17h46.53.865,WordFreq,2021.1.4,Win32,59.97001499,0,65,65,98,1,1
,,w,1,0.6005,,,,,,assets,word,w,,cc,f,21,03,2021-10-04_17h46.53.865,WordFreq,2021.1.4,Win32,59.97001499,0,66,66,55,1,13
,,n,1,0.655,,,,,,calestoel,nonword,n,,cc,f,21,03,2021-10-04_17h46.53.865,WordFreq,2021.1.4,Win32,59.97001499,0,67,67,90,1,8
,,n,1,1.0015,,,,,,eltruostoc,nonword,n,,cc,f,21,03,2021-10-04_17h46.53.865,WordFreq,2021.1.4,Win32,59.97001499,0,68,68,109,1,1
,,n,1,0.9011,,,,,,theostoc,nonword,n,,cc,f,21,03,2021-10-04_17h46.53.865,WordFreq,2021.1.4,Win32,59.97001499,0,69,69,118,1,1
,,w,1,1.2039,,,,,,barrister,word,w,,cc,f,21,03,2021-10-04_17h46.53.865,WordFreq,2021.1.4,Win32,59.97001499,0,70,70,11,1,1
,,n,1,0.634,,,,,,pietry,nonword,n,,cc,f,21,03,2021-10-04_17h46.53.865,WordFreq,2021.1.4,Win32,59.97001499,0,71,71,86,1,88
,,n,1,0.8369,,,,,,robuttel,nonword,n,,cc,f,21,03,2021-10-04_17h46.53.865,WordFreq,2021.1.4,Win32,59.97001499,0,72,72,116,1,2
,,w,1,0.6921,,,,,,psychical,word,w,,cc,f,21,03,2021-10-04_17h46.53.865,WordFreq,2021.1.4,Win32,59.97001499,0,73,73,24,1,4
,,n,1,0.5725,,,,,,erudotoon,nonword,n,,cc,f,21,03,2021-10-04_17h46.53.865,WordFreq,2021.1.4,Win32,59.97001499,0,74,74,101,1,1
,,w,0,0.7869,,,,,,mutephar,nonword,n,,cc,f,21,03,2021-10-04_17h46.53.865,WordFreq,2021.1.4,Win32,59.97001499,0,75,75,94,1,5
,,n,1,0.7666,,,,,,onductove,nonword,n,,cc,f,21,03,2021-10-04_17h46.53.865,WordFreq,2021.1.4,Win32,59.97001499,0,76,76,106,1,1
,,w,1,0.7037,,,,,,sympathy,word,w,,cc,f,21,03,2021-10-04_17h46.53.865,WordFreq,2021.1.4,Win32,59.97001499,0,77,77,3,1,6
,,n,1,0.6074,,,,,,huevanly,nonword,n,,cc,f,21,03,2021-10-04_17h46.53.865,WordFreq,2021.1.4,Win32,59.97001499,0,78,78,89,1,9
,,n,1,0.7044,,,,,,lomousone,nonword,n,,cc,f,21,03,2021-10-04_17h46.53.865,WordFreq,2021.1.4,Win32,59.97001499,0,79,79,70,1,4
,,w,1,0.7557,,,,,,friendly,word,w,,cc,f,21,03,2021-10-04_17h46.53.865,WordFreq,2021.1.4,Win32,59.97001499,0,80,80,8,1,61
,,n,1,0.605,,,,,,servoce,nonword,n,,cc,f,21,03,2021-10-04_17h46.53.865,WordFreq,2021.1.4,Win32,59.97001499,0,81,81,75,1,313
,,n,1,0.6674,,,,,,relogoous,nonword,n,,cc,f,21,03,2021-10-04_17h46.53.865,WordFreq,2021.1.4,Win32,59.97001499,0,82,82,81,1,165
,,w,1,0.6858,,,,,,liberties,word,w,,cc,f,21,03,2021-10-04_17h46.53.865,WordFreq,2021.1.4,Win32,59.97001499,0,83,83,4,1,8
,,w,1,0.9215,,,,,,percipience,word,w,,cc,f,21,03,2021-10-04_17h46.53.865,WordFreq,2021.1.4,Win32,59.97001499,0,84,84,57,1,1
,,n,1,0.7342,,,,,,stetostocs,nonword,n,,cc,f,21,03,2021-10-04_17h46.53.865,WordFreq,2021.1.4,Win32,59.97001499,0,85,85,69,1,1
,,n,1,1.1507,,,,,,bruker,nonword,n,,cc,f,21,03,2021-10-04_17h46.53.865,WordFreq,2021.1.4,Win32,59.97001499,0,86,86,95,1,1
,,w,0,0.7349,,,,,,sampothy,nonword,n,,cc,f,21,03,2021-10-04_17h46.53.865,WordFreq,2021.1.4,Win32,59.97001499,0,87,87,63,1,6
,,n,1,0.6043,,,,,,emoceble,nonword,n,,cc,f,21,03,2021-10-04_17h46.53.865,WordFreq,2021.1.4,Win32,59.97001499,0,88,88,112,1,1
,,n,0,0.6712,,,,,,elegies,word,w,,cc,f,21,03,2021-10-04_17h46.53.865,WordFreq,2021.1.4,Win32,59.97001499,0,89,89,38,1,1
,,n,1,0.7008,,,,,,iducetuon,nonword,n,,cc,f,21,03,2021-10-04_17h46.53.865,WordFreq,2021.1.4,Win32,59.97001499,0,90,90,67,1,214
,,w,1,0.6843,,,,,,savings,word,w,,cc,f,21,03,2021-10-04_17h46.53.865,WordFreq,2021.1.4,Win32,59.97001499,0,91,91,18,1,23
,,n,1,0.9895,,,,,,berroster,nonword,n,,cc,f,21,03,2021-10-04_17h46.53.865,WordFreq,2021.1.4,Win32,59.97001499,0,92,92,71,1,1
,,w,1,0.6658,,,,,,poetry,word,w,,cc,f,21,03,2021-10-04_17h46.53.865,WordFreq,2021.1.4,Win32,59.97001499,0,93,93,26,1,88
,,n,0,0.8243,,,,,,condolence,word,w,,cc,f,21,03,2021-10-04_17h46.53.865,WordFreq,2021.1.4,Win32,59.97001499,0,94,94,6,1,1
,,w,1,0.6222,,,,,,heavenly,word,w,,cc,f,21,03,2021-10-04_17h46.53.865,WordFreq,2021.1.4,Win32,59.97001499,0,95,95,29,1,9
,,n,1,0.6789,,,,,,sporotuel,nonword,n,,cc,f,21,03,2021-10-04_17h46.53.865,WordFreq,2021.1.4,Win32,59.97001499,0,96,96,72,1,64
,,w,1,0.6084,,,,,,hospitality,word,w,,cc,f,21,03,2021-10-04_17h46.53.865,WordFreq,2021.1.4,Win32,59.97001499,0,97,97,45,1,6
,,w,1,0.618,,,,,,earthly,word,w,,cc,f,21,03,2021-10-04_17h46.53.865,WordFreq,2021.1.4,Win32,59.97001499,0,98,98,31,1,6
,,w,1,0.5846,,,,,,religious,word,w,,cc,f,21,03,2021-10-04_17h46.53.865,WordFreq,2021.1.4,Win32,59.97001499,0,99,99,21,1,165
,,w,1,0.5949,,,,,,lawyer,word,w,,cc,f,21,03,2021-10-04_17h46.53.865,WordFreq,2021.1.4,Win32,59.97001499,0,100,100,1,1,43
,,w,1,0.7207,,,,,,debating,word,w,,cc,f,21,03,2021-10-04_17h46.53.865,WordFreq,2021.1.4,Win32,59.97001499,0,101,101,37,1,4
,,w,1,0.5487,,,,,,rebuttal,word,w,,cc,f,21,03,2021-10-04_17h46.53.865,WordFreq,2021.1.4,Win32,59.97001499,0,102,102,56,1,2
,,w,1,0.7768,,,,,,altruistic,word,w,,cc,f,21,03,2021-10-04_17h46.53.865,WordFreq,2021.1.4,Win32,59.97001499,0,103,103,49,1,1
,,n,1,0.7712,,,,,,physocs,nonword,n,,cc,f,21,03,2021-10-04_17h46.53.865,WordFreq,2021.1.4,Win32,59.97001499,0,104,104,62,1,22
,,n,1,0.5346,,,,,,onotoetove,nonword,n,,cc,f,21,03,2021-10-04_17h46.53.865,WordFreq,2021.1.4,Win32,59.97001499,0,105,105,107,1,32
,,n,1,0.6228,,,,,,judocoery,nonword,n,,cc,f,21,03,2021-10-04_17h46.53.865,WordFreq,2021.1.4,Win32,59.97001499,0,106,106,114,1,3
,,n,0,0.6364,,,,,,amicable,word,w,,cc,f,21,03,2021-10-04_17h46.53.865,WordFreq,2021.1.4,Win32,59.97001499,0,107,107,52,1,1
,,w,1,0.6878,,,,,,churches,word,w,,cc,f,21,03,2021-10-04_17h46.53.865,WordFreq,2021.1.4,Win32,59.97001499,0,108,108,36,1,96
,,w,1,0.6755,,,,,,statistics,word,w,,cc,f,21,03,2021-10-04_17h46.53.865,WordFreq,2021.1.4,Win32,59.97001499,0,109,109,9,1,1
,,n,0,0.6547,,,,,,limousine,word,w,,cc,f,21,03,2021-10-04_17h46.53.865,WordFreq,2021.1.4,Win32,59.97001499,0,110,110,10,1,4
,,n,1,0.8384,,,,,,lobertoes,nonword,n,,cc,f,21,03,2021-10-04_17h46.53.865,WordFreq,2021.1.4,Win32,59.97001499,0,111,111,64,1,8
,,n,1,0.6213,,,,,,acinamocs,nonword,n,,cc,f,21,03,2021-10-04_17h46.53.865,WordFreq,2021.1.4,Win32,59.97001499,0,112,112,88,1,17
,,w,1,0.6548,,,,,,theistic,word,w,,cc,f,21,03,2021-10-04_17h46.53.865,WordFreq,2021.1.4,Win32,59.97001499,0,113,113,58,1,1
,,w,1,0.6201,,,,,,service,word,w,,cc,f,21,03,2021-10-04_17h46.53.865,WordFreq,2021.1.4,Win32,59.97001499,0,114,114,15,1,313
,,w,1,0.5217,,,,,,picture,word,w,,cc,f,21,03,2021-10-04_17h46.53.865,WordFreq,2021.1.4,Win32,59.97001499,0,115,115,25,1,162
,,n,1,0.7388,,,,,,percopoence,nonword,n,,cc,f,21,03,2021-10-04_17h46.53.865,WordFreq,2021.1.4,Win32,59.97001499,0,116,116,117,1,1
,,w,1,0.8195,,,,,,automobile,word,w,,cc,f,21,03,2021-10-04_17h46.53.865,WordFreq,2021.1.4,Win32,59.97001499,0,117,117,5,1,50
,,w,1,0.6512,,,,,,government,word,w,,cc,f,21,03,2021-10-04_17h46.53.865,WordFreq,2021.1.4,Win32,59.97001499,0,118,118,44,1,417
,,n,1,0.907,,,,,,chencels,nonword,n,,cc,f,21,03,2021-10-04_17h46.53.865,WordFreq,2021.1.4,Win32,59.97001499,0,119,119,87,1,1
