ok1.keys,ok1.rt,resp.keys,resp.corr,resp.rt,practiceTrials.thisRepN,practiceTrials.thisTrialN,practiceTrials.thisN,practiceTrials.thisIndex,practiceTrials.ran,strings,word_nonword,corrans,font,participant,gender (m/f),age,session,date,expName,psychopyVersion,OS,frameRate,trials.thisRepN,trials.thisTrialN,trials.thisN,trials.thisIndex,trials.ran,freq
w,56.0937,n,0,2.327,0,0,0,2,1,umlaut,word,w,S,eg,m,19,1,2021-10-08_23h28.07.385,WordFreq,2021.1.4,Win32,59.91611744,,,,,,
,,n,1,2.9307,0,1,1,8,1,dipplagungor,nonword,n,S,eg,m,19,1,2021-10-08_23h28.07.385,WordFreq,2021.1.4,Win32,59.91611744,,,,,,
,,w,1,1.2118,0,2,2,4,1,custard,word,w,S,eg,m,19,1,2021-10-08_23h28.07.385,WordFreq,2021.1.4,Win32,59.91611744,,,,,,
,,n,1,1.2552,0,3,3,7,1,imleit,nonword,n,SS,eg,m,19,1,2021-10-08_23h28.07.385,WordFreq,2021.1.4,Win32,59.91611744,,,,,,
,,n,1,1.1188,0,4,4,9,1,casterd,nonword,n,SS,eg,m,19,1,2021-10-08_23h28.07.385,WordFreq,2021.1.4,Win32,59.91611744,,,,,,
,,n,1,0.7548,0,5,5,5,1,deg,nonword,n,SS,eg,m,19,1,2021-10-08_23h28.07.385,WordFreq,2021.1.4,Win32,59.91611744,,,,,,
,,n,1,0.9694,0,6,6,6,1,haise,nonword,n,S,eg,m,19,1,2021-10-08_23h28.07.385,WordFreq,2021.1.4,Win32,59.91611744,,,,,,
,,w,1,0.971,0,7,7,1,1,house,word,w,SS,eg,m,19,1,2021-10-08_23h28.07.385,WordFreq,2021.1.4,Win32,59.91611744,,,,,,
,,w,1,1.1102,0,8,8,3,1,doppleganger,word,w,SS,eg,m,19,1,2021-10-08_23h28.07.385,WordFreq,2021.1.4,Win32,59.91611744,,,,,,
,,w,1,0.6671,0,9,9,0,1,dog,word,w,S,eg,m,19,1,2021-10-08_23h28.07.385,WordFreq,2021.1.4,Win32,59.91611744,,,,,,
,,w,1,0.6425,,,,,,government,word,w,,eg,m,19,1,2021-10-08_23h28.07.385,WordFreq,2021.1.4,Win32,59.91611744,0,0,0,44,1,417
,,w,1,0.696,,,,,,orchestra,word,w,,eg,m,19,1,2021-10-08_23h28.07.385,WordFreq,2021.1.4,Win32,59.91611744,0,1,1,20,1,60
,,n,1,0.9294,,,,,,rivurence,nonword,n,,eg,m,19,1,2021-10-08_23h28.07.385,WordFreq,2021.1.4,Win32,59.91611744,0,2,2,79,1,5
,,n,1,1.0343,,,,,,poctere,nonword,n,,eg,m,19,1,2021-10-08_23h28.07.385,WordFreq,2021.1.4,Win32,59.91611744,0,3,3,85,1,162
,,w,1,0.7616,,,,,,heavenly,word,w,,eg,m,19,1,2021-10-08_23h28.07.385,WordFreq,2021.1.4,Win32,59.91611744,0,4,4,29,1,9
,,w,1,0.7134,,,,,,mundane,word,w,,eg,m,19,1,2021-10-08_23h28.07.385,WordFreq,2021.1.4,Win32,59.91611744,0,5,5,50,1,3
,,n,1,0.8133,,,,,,mundene,nonword,n,,eg,m,19,1,2021-10-08_23h28.07.385,WordFreq,2021.1.4,Win32,59.91611744,0,6,6,110,1,3
,,n,1,0.7462,,,,,,percopoence,nonword,n,,eg,m,19,1,2021-10-08_23h28.07.385,WordFreq,2021.1.4,Win32,59.91611744,0,7,7,117,1,1
,,w,1,0.6291,,,,,,charitable,word,w,,eg,m,19,1,2021-10-08_23h28.07.385,WordFreq,2021.1.4,Win32,59.91611744,0,8,8,32,1,5
,,n,0,0.8981,,,,,,etcher,word,w,,eg,m,19,1,2021-10-08_23h28.07.385,WordFreq,2021.1.4,Win32,59.91611744,0,9,9,40,1,1
,,w,1,0.9292,,,,,,amicable,word,w,,eg,m,19,1,2021-10-08_23h28.07.385,WordFreq,2021.1.4,Win32,59.91611744,0,10,10,52,1,1
,,n,1,0.8006,,,,,,letarery,nonword,n,,eg,m,19,1,2021-10-08_23h28.07.385,WordFreq,2021.1.4,Win32,59.91611744,0,11,11,73,1,78
,,n,1,1.0117,,,,,,lomousone,nonword,n,,eg,m,19,1,2021-10-08_23h28.07.385,WordFreq,2021.1.4,Win32,59.91611744,0,12,12,70,1,4
,,w,1,0.6466,,,,,,debating,word,w,,eg,m,19,1,2021-10-08_23h28.07.385,WordFreq,2021.1.4,Win32,59.91611744,0,13,13,37,1,4
,,w,1,0.6799,,,,,,limousine,word,w,,eg,m,19,1,2021-10-08_23h28.07.385,WordFreq,2021.1.4,Win32,59.91611744,0,14,14,10,1,4
,,w,1,1.3888,,,,,,lawyer,word,w,,eg,m,19,1,2021-10-08_23h28.07.385,WordFreq,2021.1.4,Win32,59.91611744,0,15,15,1,1,43
,,w,1,0.8291,,,,,,hospitality,word,w,,eg,m,19,1,2021-10-08_23h28.07.385,WordFreq,2021.1.4,Win32,59.91611744,0,16,16,45,1,6
,,w,1,0.6163,,,,,,broker,word,w,,eg,m,19,1,2021-10-08_23h28.07.385,WordFreq,2021.1.4,Win32,59.91611744,0,17,17,35,1,1
,,n,1,0.6972,,,,,,merket,nonword,n,,eg,m,19,1,2021-10-08_23h28.07.385,WordFreq,2021.1.4,Win32,59.91611744,0,18,18,76,1,133
,,w,1,0.6466,,,,,,liberties,word,w,,eg,m,19,1,2021-10-08_23h28.07.385,WordFreq,2021.1.4,Win32,59.91611744,0,19,19,4,1,8
,,w,1,1.079,,,,,,benign,word,w,,eg,m,19,1,2021-10-08_23h28.07.385,WordFreq,2021.1.4,Win32,59.91611744,0,20,20,17,1,1
,,n,0,1.8304,,,,,,pedagogue,word,w,,eg,m,19,1,2021-10-08_23h28.07.385,WordFreq,2021.1.4,Win32,59.91611744,0,21,21,23,1,1
,,n,0,3.4639,,,,,,psychical,word,w,,eg,m,19,1,2021-10-08_23h28.07.385,WordFreq,2021.1.4,Win32,59.91611744,0,22,22,24,1,4
,,n,0,1.5297,,,,,,percipience,word,w,,eg,m,19,1,2021-10-08_23h28.07.385,WordFreq,2021.1.4,Win32,59.91611744,0,23,23,57,1,1
,,w,1,0.937,,,,,,rebuttal,word,w,,eg,m,19,1,2021-10-08_23h28.07.385,WordFreq,2021.1.4,Win32,59.91611744,0,24,24,56,1,2
,,n,1,0.7483,,,,,,peontong,nonword,n,,eg,m,19,1,2021-10-08_23h28.07.385,WordFreq,2021.1.4,Win32,59.91611744,0,25,25,82,1,59
,,n,1,0.8807,,,,,,judocoery,nonword,n,,eg,m,19,1,2021-10-08_23h28.07.385,WordFreq,2021.1.4,Win32,59.91611744,0,26,26,114,1,3
,,w,1,0.787,,,,,,automobile,word,w,,eg,m,19,1,2021-10-08_23h28.07.385,WordFreq,2021.1.4,Win32,59.91611744,0,27,27,5,1,50
,,n,1,0.7111,,,,,,froandly,nonword,n,,eg,m,19,1,2021-10-08_23h28.07.385,WordFreq,2021.1.4,Win32,59.91611744,0,28,28,68,1,61
,,w,1,0.7469,,,,,,altruistic,word,w,,eg,m,19,1,2021-10-08_23h28.07.385,WordFreq,2021.1.4,Win32,59.91611744,0,29,29,49,1,1
,,n,1,0.7693,,,,,,calestoel,nonword,n,,eg,m,19,1,2021-10-08_23h28.07.385,WordFreq,2021.1.4,Win32,59.91611744,0,30,30,90,1,8
,,w,1,0.8779,,,,,,assiduous,word,w,,eg,m,19,1,2021-10-08_23h28.07.385,WordFreq,2021.1.4,Win32,59.91611744,0,31,31,0,1,1
,,n,0,1.1679,,,,,,beatific,word,w,,eg,m,19,1,2021-10-08_23h28.07.385,WordFreq,2021.1.4,Win32,59.91611744,0,32,32,14,1,1
,,w,1,0.6015,,,,,,poetry,word,w,,eg,m,19,1,2021-10-08_23h28.07.385,WordFreq,2021.1.4,Win32,59.91611744,0,33,33,26,1,88
,,n,1,0.767,,,,,,huspoteloty,nonword,n,,eg,m,19,1,2021-10-08_23h28.07.385,WordFreq,2021.1.4,Win32,59.91611744,0,34,34,105,1,6
,,n,1,0.6799,,,,,,mutephar,nonword,n,,eg,m,19,1,2021-10-08_23h28.07.385,WordFreq,2021.1.4,Win32,59.91611744,0,35,35,94,1,5
,,n,1,0.6302,,,,,,erudotoon,nonword,n,,eg,m,19,1,2021-10-08_23h28.07.385,WordFreq,2021.1.4,Win32,59.91611744,0,36,36,101,1,1
,,w,1,0.618,,,,,,metaphor,word,w,,eg,m,19,1,2021-10-08_23h28.07.385,WordFreq,2021.1.4,Win32,59.91611744,0,37,37,34,1,5
,,w,1,0.5775,,,,,,assets,word,w,,eg,m,19,1,2021-10-08_23h28.07.385,WordFreq,2021.1.4,Win32,59.91611744,0,38,38,55,1,13
,,n,0,0.9422,,,,,,erudition,word,w,,eg,m,19,1,2021-10-08_23h28.07.385,WordFreq,2021.1.4,Win32,59.91611744,0,39,39,41,1,1
,,n,1,0.704,,,,,,padegigue,nonword,n,,eg,m,19,1,2021-10-08_23h28.07.385,WordFreq,2021.1.4,Win32,59.91611744,0,40,40,83,1,1
,,w,1,1.368,,,,,,ensemble,word,w,,eg,m,19,1,2021-10-08_23h28.07.385,WordFreq,2021.1.4,Win32,59.91611744,0,41,41,42,1,11
,,n,1,0.747,,,,,,charches,nonword,n,,eg,m,19,1,2021-10-08_23h28.07.385,WordFreq,2021.1.4,Win32,59.91611744,0,42,42,96,1,96
,,n,1,0.7297,,,,,,iducetuon,nonword,n,,eg,m,19,1,2021-10-08_23h28.07.385,WordFreq,2021.1.4,Win32,59.91611744,0,43,43,67,1,214
,,n,0,0.7965,,,,,,conviviality,word,w,,eg,m,19,1,2021-10-08_23h28.07.385,WordFreq,2021.1.4,Win32,59.91611744,0,44,44,39,1,1
,,n,1,0.7494,,,,,,essets,nonword,n,,eg,m,19,1,2021-10-08_23h28.07.385,WordFreq,2021.1.4,Win32,59.91611744,0,45,45,115,1,13
,,w,1,0.5494,,,,,,savings,word,w,,eg,m,19,1,2021-10-08_23h28.07.385,WordFreq,2021.1.4,Win32,59.91611744,0,46,46,18,1,23
,,n,1,0.5608,,,,,,lobertoes,nonword,n,,eg,m,19,1,2021-10-08_23h28.07.385,WordFreq,2021.1.4,Win32,59.91611744,0,47,47,64,1,8
,,n,1,0.5817,,,,,,theostoc,nonword,n,,eg,m,19,1,2021-10-08_23h28.07.385,WordFreq,2021.1.4,Win32,59.91611744,0,48,48,118,1,1
,,n,1,0.5963,,,,,,eutomobole,nonword,n,,eg,m,19,1,2021-10-08_23h28.07.385,WordFreq,2021.1.4,Win32,59.91611744,0,49,49,65,1,50
,,n,1,0.5464,,,,,,beetofoc,nonword,n,,eg,m,19,1,2021-10-08_23h28.07.385,WordFreq,2021.1.4,Win32,59.91611744,0,50,50,74,1,1
,,n,1,0.8116,,,,,,essaduoas,nonword,n,,eg,m,19,1,2021-10-08_23h28.07.385,WordFreq,2021.1.4,Win32,59.91611744,0,51,51,60,1,1
,,w,1,0.7632,,,,,,barrister,word,w,,eg,m,19,1,2021-10-08_23h28.07.385,WordFreq,2021.1.4,Win32,59.91611744,0,52,52,11,1,1
,,n,1,0.6016,,,,,,gavirnmunt,nonword,n,,eg,m,19,1,2021-10-08_23h28.07.385,WordFreq,2021.1.4,Win32,59.91611744,0,53,53,104,1,417
,,w,1,0.6126,,,,,,spiritual,word,w,,eg,m,19,1,2021-10-08_23h28.07.385,WordFreq,2021.1.4,Win32,59.91611744,0,54,54,12,1,64
,,n,1,0.6797,,,,,,convovoeloty,nonword,n,,eg,m,19,1,2021-10-08_23h28.07.385,WordFreq,2021.1.4,Win32,59.91611744,0,55,55,99,1,1
,,n,1,0.7467,,,,,,cindalence,nonword,n,,eg,m,19,1,2021-10-08_23h28.07.385,WordFreq,2021.1.4,Win32,59.91611744,0,56,56,66,1,1
,,w,1,0.4944,,,,,,picture,word,w,,eg,m,19,1,2021-10-08_23h28.07.385,WordFreq,2021.1.4,Win32,59.91611744,0,57,57,25,1,162
,,n,0,0.6335,,,,,,vignette,word,w,,eg,m,19,1,2021-10-08_23h28.07.385,WordFreq,2021.1.4,Win32,59.91611744,0,58,58,48,1,2
,,n,1,0.4938,,,,,,scoentofoc,nonword,n,,eg,m,19,1,2021-10-08_23h28.07.385,WordFreq,2021.1.4,Win32,59.91611744,0,59,59,93,1,86
,,n,1,0.7462,,,,,,sampothy,nonword,n,,eg,m,19,1,2021-10-08_23h28.07.385,WordFreq,2021.1.4,Win32,59.91611744,0,60,60,63,1,6
,,w,1,0.596,,,,,,knowledge,word,w,,eg,m,19,1,2021-10-08_23h28.07.385,WordFreq,2021.1.4,Win32,59.91611744,0,61,61,59,1,145
,,n,1,0.5129,,,,,,onotoetove,nonword,n,,eg,m,19,1,2021-10-08_23h28.07.385,WordFreq,2021.1.4,Win32,59.91611744,0,62,62,107,1,32
,,n,1,0.5311,,,,,,alegoes,nonword,n,,eg,m,19,1,2021-10-08_23h28.07.385,WordFreq,2021.1.4,Win32,59.91611744,0,63,63,98,1,1
,,n,1,0.5963,,,,,,psychocel,nonword,n,,eg,m,19,1,2021-10-08_23h28.07.385,WordFreq,2021.1.4,Win32,59.91611744,0,64,64,84,1,4
,,n,1,0.4969,,,,,,otchur,nonword,n,,eg,m,19,1,2021-10-08_23h28.07.385,WordFreq,2021.1.4,Win32,59.91611744,0,65,65,100,1,1
,,w,1,0.6595,,,,,,literary,word,w,,eg,m,19,1,2021-10-08_23h28.07.385,WordFreq,2021.1.4,Win32,59.91611744,0,66,66,13,1,78
,,w,1,0.5523,,,,,,service,word,w,,eg,m,19,1,2021-10-08_23h28.07.385,WordFreq,2021.1.4,Win32,59.91611744,0,67,67,15,1,313
,,n,1,0.7579,,,,,,eltruostoc,nonword,n,,eg,m,19,1,2021-10-08_23h28.07.385,WordFreq,2021.1.4,Win32,59.91611744,0,68,68,109,1,1
,,w,1,0.4712,,,,,,education,word,w,,eg,m,19,1,2021-10-08_23h28.07.385,WordFreq,2021.1.4,Win32,59.91611744,0,69,69,7,1,214
,,n,1,0.5517,,,,,,cheroteble,nonword,n,,eg,m,19,1,2021-10-08_23h28.07.385,WordFreq,2021.1.4,Win32,59.91611744,0,70,70,92,1,5
,,n,1,0.6015,,,,,,ancourced,nonword,n,,eg,m,19,1,2021-10-08_23h28.07.385,WordFreq,2021.1.4,Win32,59.91611744,0,71,71,113,1,1
,,w,1,0.5537,,,,,,physics,word,w,,eg,m,19,1,2021-10-08_23h28.07.385,WordFreq,2021.1.4,Win32,59.91611744,0,72,72,2,1,22
,,n,1,0.5256,,,,,,aurthly,nonword,n,,eg,m,19,1,2021-10-08_23h28.07.385,WordFreq,2021.1.4,Win32,59.91611744,0,73,73,91,1,6
,,n,1,0.6351,,,,,,chencels,nonword,n,,eg,m,19,1,2021-10-08_23h28.07.385,WordFreq,2021.1.4,Win32,59.91611744,0,74,74,87,1,1
,,w,1,0.5184,,,,,,inductive,word,w,,eg,m,19,1,2021-10-08_23h28.07.385,WordFreq,2021.1.4,Win32,59.91611744,0,75,75,46,1,1
,,n,0,0.4721,,,,,,painting,word,w,,eg,m,19,1,2021-10-08_23h28.07.385,WordFreq,2021.1.4,Win32,59.91611744,0,76,76,22,1,59
,,n,1,0.6849,,,,,,onductove,nonword,n,,eg,m,19,1,2021-10-08_23h28.07.385,WordFreq,2021.1.4,Win32,59.91611744,0,77,77,106,1,1
,,w,1,0.5183,,,,,,market,word,w,,eg,m,19,1,2021-10-08_23h28.07.385,WordFreq,2021.1.4,Win32,59.91611744,0,78,78,16,1,133
,,n,1,0.6247,,,,,,relogoous,nonword,n,,eg,m,19,1,2021-10-08_23h28.07.385,WordFreq,2021.1.4,Win32,59.91611744,0,79,79,81,1,165
,,w,1,0.4916,,,,,,statistics,word,w,,eg,m,19,1,2021-10-08_23h28.07.385,WordFreq,2021.1.4,Win32,59.91611744,0,80,80,9,1,1
,,w,1,0.6009,,,,,,economics,word,w,,eg,m,19,1,2021-10-08_23h28.07.385,WordFreq,2021.1.4,Win32,59.91611744,0,81,81,28,1,17
,,w,1,0.5238,,,,,,frugality,word,w,,eg,m,19,1,2021-10-08_23h28.07.385,WordFreq,2021.1.4,Win32,59.91611744,0,82,82,43,1,2
,,w,1,0.4545,,,,,,celestial,word,w,,eg,m,19,1,2021-10-08_23h28.07.385,WordFreq,2021.1.4,Win32,59.91611744,0,83,83,30,1,8
,,w,1,0.4608,,,,,,reverence,word,w,,eg,m,19,1,2021-10-08_23h28.07.385,WordFreq,2021.1.4,Win32,59.91611744,0,84,84,19,1,5
,,w,1,0.4909,,,,,,scientific,word,w,,eg,m,19,1,2021-10-08_23h28.07.385,WordFreq,2021.1.4,Win32,59.91611744,0,85,85,33,1,86
,,n,1,0.6101,,,,,,sporotuel,nonword,n,,eg,m,19,1,2021-10-08_23h28.07.385,WordFreq,2021.1.4,Win32,59.91611744,0,86,86,72,1,64
,,n,1,0.7134,,,,,,acinamocs,nonword,n,,eg,m,19,1,2021-10-08_23h28.07.385,WordFreq,2021.1.4,Win32,59.91611744,0,87,87,88,1,17
,,n,1,0.6358,,,,,,frageloty,nonword,n,,eg,m,19,1,2021-10-08_23h28.07.385,WordFreq,2021.1.4,Win32,59.91611744,0,88,88,103,1,2
,,n,1,0.7831,,,,,,unsumble,nonword,n,,eg,m,19,1,2021-10-08_23h28.07.385,WordFreq,2021.1.4,Win32,59.91611744,0,89,89,102,1,11
,,n,1,0.4874,,,,,,benogn,nonword,n,,eg,m,19,1,2021-10-08_23h28.07.385,WordFreq,2021.1.4,Win32,59.91611744,0,90,90,77,1,1
,,n,1,0.5139,,,,,,knuwlidge,nonword,n,,eg,m,19,1,2021-10-08_23h28.07.385,WordFreq,2021.1.4,Win32,59.91611744,0,91,91,119,1,145
,,n,1,0.6362,,,,,,servoce,nonword,n,,eg,m,19,1,2021-10-08_23h28.07.385,WordFreq,2021.1.4,Win32,59.91611744,0,92,92,75,1,313
,,n,1,0.5451,,,,,,sevongs,nonword,n,,eg,m,19,1,2021-10-08_23h28.07.385,WordFreq,2021.1.4,Win32,59.91611744,0,93,93,78,1,23
,,n,1,0.7441,,,,,,physocs,nonword,n,,eg,m,19,1,2021-10-08_23h28.07.385,WordFreq,2021.1.4,Win32,59.91611744,0,94,94,62,1,22
,,n,0,0.4804,,,,,,uncoerced,word,w,,eg,m,19,1,2021-10-08_23h28.07.385,WordFreq,2021.1.4,Win32,59.91611744,0,95,95,53,1,1
,,n,0,0.5635,,,,,,elegies,word,w,,eg,m,19,1,2021-10-08_23h28.07.385,WordFreq,2021.1.4,Win32,59.91611744,0,96,96,38,1,1
,,n,1,0.599,,,,,,ontellectiel,nonword,n,,eg,m,19,1,2021-10-08_23h28.07.385,WordFreq,2021.1.4,Win32,59.91611744,0,97,97,111,1,68
,,n,1,0.448,,,,,,berroster,nonword,n,,eg,m,19,1,2021-10-08_23h28.07.385,WordFreq,2021.1.4,Win32,59.91611744,0,98,98,71,1,1
,,w,1,0.543,,,,,,condolence,word,w,,eg,m,19,1,2021-10-08_23h28.07.385,WordFreq,2021.1.4,Win32,59.91611744,0,99,99,6,1,1
,,n,1,0.6039,,,,,,robuttel,nonword,n,,eg,m,19,1,2021-10-08_23h28.07.385,WordFreq,2021.1.4,Win32,59.91611744,0,100,100,116,1,2
,,n,1,0.5493,,,,,,bruker,nonword,n,,eg,m,19,1,2021-10-08_23h28.07.385,WordFreq,2021.1.4,Win32,59.91611744,0,101,101,95,1,1
,,w,1,0.479,,,,,,religious,word,w,,eg,m,19,1,2021-10-08_23h28.07.385,WordFreq,2021.1.4,Win32,59.91611744,0,102,102,21,1,165
,,w,1,0.4964,,,,,,intellectual,word,w,,eg,m,19,1,2021-10-08_23h28.07.385,WordFreq,2021.1.4,Win32,59.91611744,0,103,103,51,1,68
,,w,1,0.4779,,,,,,churches,word,w,,eg,m,19,1,2021-10-08_23h28.07.385,WordFreq,2021.1.4,Win32,59.91611744,0,104,104,36,1,96
,,n,1,0.5298,,,,,,pietry,nonword,n,,eg,m,19,1,2021-10-08_23h28.07.385,WordFreq,2021.1.4,Win32,59.91611744,0,105,105,86,1,88
,,n,0,0.5976,,,,,,theistic,word,w,,eg,m,19,1,2021-10-08_23h28.07.385,WordFreq,2021.1.4,Win32,59.91611744,0,106,106,58,1,1
,,n,1,0.4805,,,,,,emoceble,nonword,n,,eg,m,19,1,2021-10-08_23h28.07.385,WordFreq,2021.1.4,Win32,59.91611744,0,107,107,112,1,1
,,n,1,0.4348,,,,,,huevanly,nonword,n,,eg,m,19,1,2021-10-08_23h28.07.385,WordFreq,2021.1.4,Win32,59.91611744,0,108,108,89,1,9
,,n,1,0.4456,,,,,,vognette,nonword,n,,eg,m,19,1,2021-10-08_23h28.07.385,WordFreq,2021.1.4,Win32,59.91611744,0,109,109,108,1,2
,,w,1,0.5944,,,,,,sympathy,word,w,,eg,m,19,1,2021-10-08_23h28.07.385,WordFreq,2021.1.4,Win32,59.91611744,0,110,110,3,1,6
,,w,1,0.4784,,,,,,friendly,word,w,,eg,m,19,1,2021-10-08_23h28.07.385,WordFreq,2021.1.4,Win32,59.91611744,0,111,111,8,1,61
,,n,1,0.5449,,,,,,lewyor,nonword,n,,eg,m,19,1,2021-10-08_23h28.07.385,WordFreq,2021.1.4,Win32,59.91611744,0,112,112,61,1,43
,,w,1,0.598,,,,,,judiciary,word,w,,eg,m,19,1,2021-10-08_23h28.07.385,WordFreq,2021.1.4,Win32,59.91611744,0,113,113,54,1,3
,,n,1,0.6149,,,,,,debetong,nonword,n,,eg,m,19,1,2021-10-08_23h28.07.385,WordFreq,2021.1.4,Win32,59.91611744,0,114,114,97,1,4
,,n,1,0.5829,,,,,,stetostocs,nonword,n,,eg,m,19,1,2021-10-08_23h28.07.385,WordFreq,2021.1.4,Win32,59.91611744,0,115,115,69,1,1
,,w,1,0.5623,,,,,,initiative,word,w,,eg,m,19,1,2021-10-08_23h28.07.385,WordFreq,2021.1.4,Win32,59.91611744,0,116,116,47,1,32
,,w,1,0.4181,,,,,,earthly,word,w,,eg,m,19,1,2021-10-08_23h28.07.385,WordFreq,2021.1.4,Win32,59.91611744,0,117,117,31,1,6
,,n,1,0.5799,,,,,,urchastre,nonword,n,,eg,m,19,1,2021-10-08_23h28.07.385,WordFreq,2021.1.4,Win32,59.91611744,0,118,118,80,1,60
,,n,0,1.379,,,,,,chancels,word,w,,eg,m,19,1,2021-10-08_23h28.07.385,WordFreq,2021.1.4,Win32,59.91611744,0,119,119,27,1,1
