ok1.keys,ok1.rt,resp.keys,resp.corr,practiceTrials.thisRepN,practiceTrials.thisTrialN,practiceTrials.thisN,practiceTrials.thisIndex,practiceTrials.ran,strings,word_nonword,corrans,font,participant,gender (m/f),age,session,date,expName,psychopyVersion,OS,frameRate,resp.rt,trials.thisRepN,trials.thisTrialN,trials.thisN,trials.thisIndex,trials.ran,freq
space,54.334,,0,0,0,0,7,1,imleit,nonword,n,SS,,f,19,03,2021-10-09_00h17.20.538,WordFreq,2021.1.4,MacIntel,58.82352941,,,,,,,
,,w,1,0,1,1,1,1,house,word,w,SS,,f,19,03,2021-10-09_00h17.20.538,WordFreq,2021.1.4,MacIntel,58.82352941,1.177,,,,,,
,,,0,0,2,2,8,1,dipplagungor,nonword,n,S,,f,19,03,2021-10-09_00h17.20.538,WordFreq,2021.1.4,MacIntel,58.82352941,,,,,,,
,,w,1,0,3,3,4,1,custard,word,w,S,,f,19,03,2021-10-09_00h17.20.538,WordFreq,2021.1.4,MacIntel,58.82352941,0.493,,,,,,
,,n,0,0,4,4,3,1,doppleganger,word,w,SS,,f,19,03,2021-10-09_00h17.20.538,WordFreq,2021.1.4,MacIntel,58.82352941,0.723,,,,,,
,,w,0,0,5,5,9,1,casterd,nonword,n,SS,,f,19,03,2021-10-09_00h17.20.538,WordFreq,2021.1.4,MacIntel,58.82352941,0.522,,,,,,
,,n,1,0,6,6,5,1,deg,nonword,n,SS,,f,19,03,2021-10-09_00h17.20.538,WordFreq,2021.1.4,MacIntel,58.82352941,0.717,,,,,,
,,w,1,0,7,7,2,1,umlaut,word,w,S,,f,19,03,2021-10-09_00h17.20.538,WordFreq,2021.1.4,MacIntel,58.82352941,0.711,,,,,,
,,w,1,0,8,8,0,1,dog,word,w,S,,f,19,03,2021-10-09_00h17.20.538,WordFreq,2021.1.4,MacIntel,58.82352941,0.647,,,,,,
,,w,0,0,9,9,6,1,haise,nonword,n,S,,f,19,03,2021-10-09_00h17.20.538,WordFreq,2021.1.4,MacIntel,58.82352941,0.939,,,,,,
,,n,1,,,,,,rivurence,nonword,n,,,f,19,03,2021-10-09_00h17.20.538,WordFreq,2021.1.4,MacIntel,58.82352941,0.862,0,0,0,79,1,5
,,w,1,,,,,,friendly,word,w,,,f,19,03,2021-10-09_00h17.20.538,WordFreq,2021.1.4,MacIntel,58.82352941,0.618,0,1,1,8,1,61
,,n,1,,,,,,froandly,nonword,n,,,f,19,03,2021-10-09_00h17.20.538,WordFreq,2021.1.4,MacIntel,58.82352941,0.807,0,2,2,68,1,61
,,n,1,,,,,,lomousone,nonword,n,,,f,19,03,2021-10-09_00h17.20.538,WordFreq,2021.1.4,MacIntel,58.82352941,0.692,0,3,3,70,1,4
,,w,1,,,,,,mundane,word,w,,,f,19,03,2021-10-09_00h17.20.538,WordFreq,2021.1.4,MacIntel,58.82352941,0.712,0,4,4,50,1,3
,,w,1,,,,,,scientific,word,w,,,f,19,03,2021-10-09_00h17.20.538,WordFreq,2021.1.4,MacIntel,58.82352941,0.659,0,5,5,33,1,86
,,n,1,,,,,,aurthly,nonword,n,,,f,19,03,2021-10-09_00h17.20.538,WordFreq,2021.1.4,MacIntel,58.82352941,0.67,0,6,6,91,1,6
,,n,1,,,,,,sevongs,nonword,n,,,f,19,03,2021-10-09_00h17.20.538,WordFreq,2021.1.4,MacIntel,58.82352941,0.624,0,7,7,78,1,23
,,w,1,,,,,,frugality,word,w,,,f,19,03,2021-10-09_00h17.20.538,WordFreq,2021.1.4,MacIntel,58.82352941,0.715,0,8,8,43,1,2
,,w,1,,,,,,liberties,word,w,,,f,19,03,2021-10-09_00h17.20.538,WordFreq,2021.1.4,MacIntel,58.82352941,0.588,0,9,9,4,1,8
,,w,1,,,,,,automobile,word,w,,,f,19,03,2021-10-09_00h17.20.538,WordFreq,2021.1.4,MacIntel,58.82352941,0.562,0,10,10,5,1,50
,,w,1,,,,,,intellectual,word,w,,,f,19,03,2021-10-09_00h17.20.538,WordFreq,2021.1.4,MacIntel,58.82352941,0.598,0,11,11,51,1,68
,,n,1,,,,,,urchastre,nonword,n,,,f,19,03,2021-10-09_00h17.20.538,WordFreq,2021.1.4,MacIntel,58.82352941,0.594,0,12,12,80,1,60
,,n,0,,,,,,elegies,word,w,,,f,19,03,2021-10-09_00h17.20.538,WordFreq,2021.1.4,MacIntel,58.82352941,0.581,0,13,13,38,1,1
,,n,1,,,,,,relogoous,nonword,n,,,f,19,03,2021-10-09_00h17.20.538,WordFreq,2021.1.4,MacIntel,58.82352941,0.641,0,14,14,81,1,165
,,n,1,,,,,,chencels,nonword,n,,,f,19,03,2021-10-09_00h17.20.538,WordFreq,2021.1.4,MacIntel,58.82352941,0.592,0,15,15,87,1,1
,,n,1,,,,,,robuttel,nonword,n,,,f,19,03,2021-10-09_00h17.20.538,WordFreq,2021.1.4,MacIntel,58.82352941,0.557,0,16,16,116,1,2
,,w,0,,,,,,percopoence,nonword,n,,,f,19,03,2021-10-09_00h17.20.538,WordFreq,2021.1.4,MacIntel,58.82352941,0.832,0,17,17,117,1,1
,,w,1,,,,,,vignette,word,w,,,f,19,03,2021-10-09_00h17.20.538,WordFreq,2021.1.4,MacIntel,58.82352941,0.527,0,18,18,48,1,2
,,n,1,,,,,,scoentofoc,nonword,n,,,f,19,03,2021-10-09_00h17.20.538,WordFreq,2021.1.4,MacIntel,58.82352941,0.592,0,19,19,93,1,86
,,w,1,,,,,,spiritual,word,w,,,f,19,03,2021-10-09_00h17.20.538,WordFreq,2021.1.4,MacIntel,58.82352941,0.681,0,20,20,12,1,64
,,n,1,,,,,,judocoery,nonword,n,,,f,19,03,2021-10-09_00h17.20.538,WordFreq,2021.1.4,MacIntel,58.82352941,0.596,0,21,21,114,1,3
,,n,1,,,,,,convovoeloty,nonword,n,,,f,19,03,2021-10-09_00h17.20.538,WordFreq,2021.1.4,MacIntel,58.82352941,0.609,0,22,22,99,1,1
,,n,1,,,,,,benogn,nonword,n,,,f,19,03,2021-10-09_00h17.20.538,WordFreq,2021.1.4,MacIntel,58.82352941,0.618,0,23,23,77,1,1
,,n,1,,,,,,essaduoas,nonword,n,,,f,19,03,2021-10-09_00h17.20.538,WordFreq,2021.1.4,MacIntel,58.82352941,0.568,0,24,24,60,1,1
,,w,1,,,,,,rebuttal,word,w,,,f,19,03,2021-10-09_00h17.20.538,WordFreq,2021.1.4,MacIntel,58.82352941,0.586,0,25,25,56,1,2
,,n,1,,,,,,berroster,nonword,n,,,f,19,03,2021-10-09_00h17.20.538,WordFreq,2021.1.4,MacIntel,58.82352941,0.618,0,26,26,71,1,1
,,n,0,,,,,,economics,word,w,,,f,19,03,2021-10-09_00h17.20.538,WordFreq,2021.1.4,MacIntel,58.82352941,0.399,0,27,27,28,1,17
,,w,1,,,,,,earthly,word,w,,,f,19,03,2021-10-09_00h17.20.538,WordFreq,2021.1.4,MacIntel,58.82352941,0.684,0,28,28,31,1,6
,,n,1,,,,,,ancourced,nonword,n,,,f,19,03,2021-10-09_00h17.20.538,WordFreq,2021.1.4,MacIntel,58.82352941,0.663,0,29,29,113,1,1
,,n,1,,,,,,acinamocs,nonword,n,,,f,19,03,2021-10-09_00h17.20.538,WordFreq,2021.1.4,MacIntel,58.82352941,0.573,0,30,30,88,1,17
,,n,1,,,,,,sporotuel,nonword,n,,,f,19,03,2021-10-09_00h17.20.538,WordFreq,2021.1.4,MacIntel,58.82352941,0.657,0,31,31,72,1,64
,,n,1,,,,,,iducetuon,nonword,n,,,f,19,03,2021-10-09_00h17.20.538,WordFreq,2021.1.4,MacIntel,58.82352941,0.656,0,32,32,67,1,214
,,n,1,,,,,,onductove,nonword,n,,,f,19,03,2021-10-09_00h17.20.538,WordFreq,2021.1.4,MacIntel,58.82352941,0.566,0,33,33,106,1,1
,,w,1,,,,,,physics,word,w,,,f,19,03,2021-10-09_00h17.20.538,WordFreq,2021.1.4,MacIntel,58.82352941,0.617,0,34,34,2,1,22
,,n,1,,,,,,onotoetove,nonword,n,,,f,19,03,2021-10-09_00h17.20.538,WordFreq,2021.1.4,MacIntel,58.82352941,0.663,0,35,35,107,1,32
,,n,1,,,,,,calestoel,nonword,n,,,f,19,03,2021-10-09_00h17.20.538,WordFreq,2021.1.4,MacIntel,58.82352941,0.669,0,36,36,90,1,8
,,n,1,,,,,,mutephar,nonword,n,,,f,19,03,2021-10-09_00h17.20.538,WordFreq,2021.1.4,MacIntel,58.82352941,0.531,0,37,37,94,1,5
,,w,1,,,,,,celestial,word,w,,,f,19,03,2021-10-09_00h17.20.538,WordFreq,2021.1.4,MacIntel,58.82352941,0.743,0,38,38,30,1,8
,,w,1,,,,,,broker,word,w,,,f,19,03,2021-10-09_00h17.20.538,WordFreq,2021.1.4,MacIntel,58.82352941,0.731,0,39,39,35,1,1
,,w,1,,,,,,debating,word,w,,,f,19,03,2021-10-09_00h17.20.538,WordFreq,2021.1.4,MacIntel,58.82352941,0.582,0,40,40,37,1,4
,,w,1,,,,,,painting,word,w,,,f,19,03,2021-10-09_00h17.20.538,WordFreq,2021.1.4,MacIntel,58.82352941,0.813,0,41,41,22,1,59
,,w,0,,,,,,mundene,nonword,n,,,f,19,03,2021-10-09_00h17.20.538,WordFreq,2021.1.4,MacIntel,58.82352941,0.693,0,42,42,110,1,3
,,n,0,,,,,,theistic,word,w,,,f,19,03,2021-10-09_00h17.20.538,WordFreq,2021.1.4,MacIntel,58.82352941,0.932,0,43,43,58,1,1
,,n,1,,,,,,charches,nonword,n,,,f,19,03,2021-10-09_00h17.20.538,WordFreq,2021.1.4,MacIntel,58.82352941,0.83,0,44,44,96,1,96
,,w,1,,,,,,statistics,word,w,,,f,19,03,2021-10-09_00h17.20.538,WordFreq,2021.1.4,MacIntel,58.82352941,0.589,0,45,45,9,1,1
,,n,0,,,,,,assiduous,word,w,,,f,19,03,2021-10-09_00h17.20.538,WordFreq,2021.1.4,MacIntel,58.82352941,1.081,0,46,46,0,1,1
,,w,1,,,,,,government,word,w,,,f,19,03,2021-10-09_00h17.20.538,WordFreq,2021.1.4,MacIntel,58.82352941,0.498,0,47,47,44,1,417
,,w,1,,,,,,initiative,word,w,,,f,19,03,2021-10-09_00h17.20.538,WordFreq,2021.1.4,MacIntel,58.82352941,0.73,0,48,48,47,1,32
,,w,1,,,,,,inductive,word,w,,,f,19,03,2021-10-09_00h17.20.538,WordFreq,2021.1.4,MacIntel,58.82352941,0.762,0,49,49,46,1,1
,,w,0,,,,,,physocs,nonword,n,,,f,19,03,2021-10-09_00h17.20.538,WordFreq,2021.1.4,MacIntel,58.82352941,0.859,0,50,50,62,1,22
,,n,1,,,,,,essets,nonword,n,,,f,19,03,2021-10-09_00h17.20.538,WordFreq,2021.1.4,MacIntel,58.82352941,0.856,0,51,51,115,1,13
,,n,0,,,,,,beatific,word,w,,,f,19,03,2021-10-09_00h17.20.538,WordFreq,2021.1.4,MacIntel,58.82352941,0.682,0,52,52,14,1,1
,,w,1,,,,,,judiciary,word,w,,,f,19,03,2021-10-09_00h17.20.538,WordFreq,2021.1.4,MacIntel,58.82352941,0.724,0,53,53,54,1,3
,,n,0,,,,,,uncoerced,word,w,,,f,19,03,2021-10-09_00h17.20.538,WordFreq,2021.1.4,MacIntel,58.82352941,0.716,0,54,54,53,1,1
,,w,1,,,,,,picture,word,w,,,f,19,03,2021-10-09_00h17.20.538,WordFreq,2021.1.4,MacIntel,58.82352941,0.562,0,55,55,25,1,162
,,n,1,,,,,,stetostocs,nonword,n,,,f,19,03,2021-10-09_00h17.20.538,WordFreq,2021.1.4,MacIntel,58.82352941,0.626,0,56,56,69,1,1
,,n,1,,,,,,beetofoc,nonword,n,,,f,19,03,2021-10-09_00h17.20.538,WordFreq,2021.1.4,MacIntel,58.82352941,0.586,0,57,57,74,1,1
,,n,1,,,,,,frageloty,nonword,n,,,f,19,03,2021-10-09_00h17.20.538,WordFreq,2021.1.4,MacIntel,58.82352941,0.558,0,58,58,103,1,2
,,n,1,,,,,,theostoc,nonword,n,,,f,19,03,2021-10-09_00h17.20.538,WordFreq,2021.1.4,MacIntel,58.82352941,0.57,0,59,59,118,1,1
,,n,0,,,,,,amicable,word,w,,,f,19,03,2021-10-09_00h17.20.538,WordFreq,2021.1.4,MacIntel,58.82352941,0.591,0,60,60,52,1,1
,,w,1,,,,,,religious,word,w,,,f,19,03,2021-10-09_00h17.20.538,WordFreq,2021.1.4,MacIntel,58.82352941,0.508,0,61,61,21,1,165
,,w,1,,,,,,heavenly,word,w,,,f,19,03,2021-10-09_00h17.20.538,WordFreq,2021.1.4,MacIntel,58.82352941,0.647,0,62,62,29,1,9
,,n,1,,,,,,huspoteloty,nonword,n,,,f,19,03,2021-10-09_00h17.20.538,WordFreq,2021.1.4,MacIntel,58.82352941,0.613,0,63,63,105,1,6
,,w,1,,,,,,charitable,word,w,,,f,19,03,2021-10-09_00h17.20.538,WordFreq,2021.1.4,MacIntel,58.82352941,0.732,0,64,64,32,1,5
,,n,0,,,,,,altruistic,word,w,,,f,19,03,2021-10-09_00h17.20.538,WordFreq,2021.1.4,MacIntel,58.82352941,0.623,0,65,65,49,1,1
,,n,1,,,,,,letarery,nonword,n,,,f,19,03,2021-10-09_00h17.20.538,WordFreq,2021.1.4,MacIntel,58.82352941,0.84,0,66,66,73,1,78
,,n,1,,,,,,psychocel,nonword,n,,,f,19,03,2021-10-09_00h17.20.538,WordFreq,2021.1.4,MacIntel,58.82352941,0.675,0,67,67,84,1,4
,,w,1,,,,,,sympathy,word,w,,,f,19,03,2021-10-09_00h17.20.538,WordFreq,2021.1.4,MacIntel,58.82352941,0.578,0,68,68,3,1,6
,,w,0,,,,,,servoce,nonword,n,,,f,19,03,2021-10-09_00h17.20.538,WordFreq,2021.1.4,MacIntel,58.82352941,0.748,0,69,69,75,1,313
,,n,1,,,,,,emoceble,nonword,n,,,f,19,03,2021-10-09_00h17.20.538,WordFreq,2021.1.4,MacIntel,58.82352941,0.582,0,70,70,112,1,1
,,n,1,,,,,,pietry,nonword,n,,,f,19,03,2021-10-09_00h17.20.538,WordFreq,2021.1.4,MacIntel,58.82352941,0.887,0,71,71,86,1,88
,,w,1,,,,,,limousine,word,w,,,f,19,03,2021-10-09_00h17.20.538,WordFreq,2021.1.4,MacIntel,58.82352941,0.616,0,72,72,10,1,4
,,n,0,,,,,,etcher,word,w,,,f,19,03,2021-10-09_00h17.20.538,WordFreq,2021.1.4,MacIntel,58.82352941,0.643,0,73,73,40,1,1
,,n,1,,,,,,lewyor,nonword,n,,,f,19,03,2021-10-09_00h17.20.538,WordFreq,2021.1.4,MacIntel,58.82352941,0.824,0,74,74,61,1,43
,,n,1,,,,,,erudotoon,nonword,n,,,f,19,03,2021-10-09_00h17.20.538,WordFreq,2021.1.4,MacIntel,58.82352941,0.579,0,75,75,101,1,1
,,n,1,,,,,,knuwlidge,nonword,n,,,f,19,03,2021-10-09_00h17.20.538,WordFreq,2021.1.4,MacIntel,58.82352941,0.651,0,76,76,119,1,145
,,w,1,,,,,,percipience,word,w,,,f,19,03,2021-10-09_00h17.20.538,WordFreq,2021.1.4,MacIntel,58.82352941,0.926,0,77,77,57,1,1
,,w,1,,,,,,assets,word,w,,,f,19,03,2021-10-09_00h17.20.538,WordFreq,2021.1.4,MacIntel,58.82352941,0.892,0,78,78,55,1,13
,,w,1,,,,,,service,word,w,,,f,19,03,2021-10-09_00h17.20.538,WordFreq,2021.1.4,MacIntel,58.82352941,0.591,0,79,79,15,1,313
,,w,1,,,,,,hospitality,word,w,,,f,19,03,2021-10-09_00h17.20.538,WordFreq,2021.1.4,MacIntel,58.82352941,0.575,0,80,80,45,1,6
,,w,0,,,,,,merket,nonword,n,,,f,19,03,2021-10-09_00h17.20.538,WordFreq,2021.1.4,MacIntel,58.82352941,0.492,0,81,81,76,1,133
,,n,1,,,,,,lobertoes,nonword,n,,,f,19,03,2021-10-09_00h17.20.538,WordFreq,2021.1.4,MacIntel,58.82352941,0.718,0,82,82,64,1,8
,,w,1,,,,,,lawyer,word,w,,,f,19,03,2021-10-09_00h17.20.538,WordFreq,2021.1.4,MacIntel,58.82352941,0.639,0,83,83,1,1,43
,,n,1,,,,,,otchur,nonword,n,,,f,19,03,2021-10-09_00h17.20.538,WordFreq,2021.1.4,MacIntel,58.82352941,0.599,0,84,84,100,1,1
,,n,1,,,,,,huevanly,nonword,n,,,f,19,03,2021-10-09_00h17.20.538,WordFreq,2021.1.4,MacIntel,58.82352941,0.531,0,85,85,89,1,9
,,n,1,,,,,,padegigue,nonword,n,,,f,19,03,2021-10-09_00h17.20.538,WordFreq,2021.1.4,MacIntel,58.82352941,0.566,0,86,86,83,1,1
,,n,1,,,,,,cindalence,nonword,n,,,f,19,03,2021-10-09_00h17.20.538,WordFreq,2021.1.4,MacIntel,58.82352941,0.534,0,87,87,66,1,1
,,n,0,,,,,,condolence,word,w,,,f,19,03,2021-10-09_00h17.20.538,WordFreq,2021.1.4,MacIntel,58.82352941,0.498,0,88,88,6,1,1
,,w,1,,,,,,metaphor,word,w,,,f,19,03,2021-10-09_00h17.20.538,WordFreq,2021.1.4,MacIntel,58.82352941,0.584,0,89,89,34,1,5
,,n,1,,,,,,eltruostoc,nonword,n,,,f,19,03,2021-10-09_00h17.20.538,WordFreq,2021.1.4,MacIntel,58.82352941,0.541,0,90,90,109,1,1
,,w,1,,,,,,ensemble,word,w,,,f,19,03,2021-10-09_00h17.20.538,WordFreq,2021.1.4,MacIntel,58.82352941,0.743,0,91,91,42,1,11
,,w,1,,,,,,reverence,word,w,,,f,19,03,2021-10-09_00h17.20.538,WordFreq,2021.1.4,MacIntel,58.82352941,0.983,0,92,92,19,1,5
,,w,0,,,,,,debetong,nonword,n,,,f,19,03,2021-10-09_00h17.20.538,WordFreq,2021.1.4,MacIntel,58.82352941,0.976,0,93,93,97,1,4
,,n,1,,,,,,vognette,nonword,n,,,f,19,03,2021-10-09_00h17.20.538,WordFreq,2021.1.4,MacIntel,58.82352941,0.631,0,94,94,108,1,2
,,n,1,,,,,,eutomobole,nonword,n,,,f,19,03,2021-10-09_00h17.20.538,WordFreq,2021.1.4,MacIntel,58.82352941,0.8,0,95,95,65,1,50
,,n,0,,,,,,market,word,w,,,f,19,03,2021-10-09_00h17.20.538,WordFreq,2021.1.4,MacIntel,58.82352941,1.113,0,96,96,16,1,133
,,w,1,,,,,,literary,word,w,,,f,19,03,2021-10-09_00h17.20.538,WordFreq,2021.1.4,MacIntel,58.82352941,0.993,0,97,97,13,1,78
,,w,1,,,,,,education,word,w,,,f,19,03,2021-10-09_00h17.20.538,WordFreq,2021.1.4,MacIntel,58.82352941,0.652,0,98,98,7,1,214
,,n,1,,,,,,ontellectiel,nonword,n,,,f,19,03,2021-10-09_00h17.20.538,WordFreq,2021.1.4,MacIntel,58.82352941,0.812,0,99,99,111,1,68
,,w,1,,,,,,poetry,word,w,,,f,19,03,2021-10-09_00h17.20.538,WordFreq,2021.1.4,MacIntel,58.82352941,0.916,0,100,100,26,1,88
,,w,1,,,,,,psychical,word,w,,,f,19,03,2021-10-09_00h17.20.538,WordFreq,2021.1.4,MacIntel,58.82352941,0.699,0,101,101,24,1,4
,,n,1,,,,,,cheroteble,nonword,n,,,f,19,03,2021-10-09_00h17.20.538,WordFreq,2021.1.4,MacIntel,58.82352941,1.147,0,102,102,92,1,5
,,n,0,,,,,,conviviality,word,w,,,f,19,03,2021-10-09_00h17.20.538,WordFreq,2021.1.4,MacIntel,58.82352941,1.115,0,103,103,39,1,1
,,n,0,,,,,,erudition,word,w,,,f,19,03,2021-10-09_00h17.20.538,WordFreq,2021.1.4,MacIntel,58.82352941,0.644,0,104,104,41,1,1
,,n,1,,,,,,alegoes,nonword,n,,,f,19,03,2021-10-09_00h17.20.538,WordFreq,2021.1.4,MacIntel,58.82352941,0.742,0,105,105,98,1,1
,,n,0,,,,,,pedagogue,word,w,,,f,19,03,2021-10-09_00h17.20.538,WordFreq,2021.1.4,MacIntel,58.82352941,0.52,0,106,106,23,1,1
,,n,1,,,,,,gavirnmunt,nonword,n,,,f,19,03,2021-10-09_00h17.20.538,WordFreq,2021.1.4,MacIntel,58.82352941,0.524,0,107,107,104,1,417
,,n,1,,,,,,peontong,nonword,n,,,f,19,03,2021-10-09_00h17.20.538,WordFreq,2021.1.4,MacIntel,58.82352941,0.541,0,108,108,82,1,59
,,n,0,,,,,,orchestra,word,w,,,f,19,03,2021-10-09_00h17.20.538,WordFreq,2021.1.4,MacIntel,58.82352941,0.603,0,109,109,20,1,60
,,n,1,,,,,,bruker,nonword,n,,,f,19,03,2021-10-09_00h17.20.538,WordFreq,2021.1.4,MacIntel,58.82352941,0.681,0,110,110,95,1,1
,,n,1,,,,,,unsumble,nonword,n,,,f,19,03,2021-10-09_00h17.20.538,WordFreq,2021.1.4,MacIntel,58.82352941,0.494,0,111,111,102,1,11
,,n,0,,,,,,chancels,word,w,,,f,19,03,2021-10-09_00h17.20.538,WordFreq,2021.1.4,MacIntel,58.82352941,0.476,0,112,112,27,1,1
,,w,1,,,,,,barrister,word,w,,,f,19,03,2021-10-09_00h17.20.538,WordFreq,2021.1.4,MacIntel,58.82352941,0.585,0,113,113,11,1,1
,,w,1,,,,,,churches,word,w,,,f,19,03,2021-10-09_00h17.20.538,WordFreq,2021.1.4,MacIntel,58.82352941,0.557,0,114,114,36,1,96
,,n,1,,,,,,poctere,nonword,n,,,f,19,03,2021-10-09_00h17.20.538,WordFreq,2021.1.4,MacIntel,58.82352941,0.616,0,115,115,85,1,162
,,w,1,,,,,,knowledge,word,w,,,f,19,03,2021-10-09_00h17.20.538,WordFreq,2021.1.4,MacIntel,58.82352941,0.564,0,116,116,59,1,145
,,w,1,,,,,,savings,word,w,,,f,19,03,2021-10-09_00h17.20.538,WordFreq,2021.1.4,MacIntel,58.82352941,0.608,0,117,117,18,1,23
,,w,0,,,,,,sampothy,nonword,n,,,f,19,03,2021-10-09_00h17.20.538,WordFreq,2021.1.4,MacIntel,58.82352941,0.591,0,118,118,63,1,6
,,n,0,,,,,,benign,word,w,,,f,19,03,2021-10-09_00h17.20.538,WordFreq,2021.1.4,MacIntel,58.82352941,0.675,0,119,119,17,1,1
