ok1.keys,ok1.rt,resp.keys,resp.corr,resp.rt,practiceTrials.thisRepN,practiceTrials.thisTrialN,practiceTrials.thisN,practiceTrials.thisIndex,practiceTrials.ran,strings,word_nonword,corrans,font,participant,gender (m/f),age,session,date,expName,psychopyVersion,OS,frameRate,trials.thisRepN,trials.thisTrialN,trials.thisN,trials.thisIndex,trials.ran,freq
space,71.513,w,1,3.232,0,0,0,4,1,custard,word,w,S,sal,f,19,03,2021-10-08_22h22.04.757,WordFreq,2021.1.4,MacIntel,62.5,,,,,,
,,w,0,0.038,0,1,1,5,1,deg,nonword,n,SS,sal,f,19,03,2021-10-08_22h22.04.757,WordFreq,2021.1.4,MacIntel,62.5,,,,,,
,,w,0,0.001,0,2,2,8,1,dipplagungor,nonword,n,S,sal,f,19,03,2021-10-08_22h22.04.757,WordFreq,2021.1.4,MacIntel,62.5,,,,,,
,,w,1,4.982,0,3,3,3,1,doppleganger,word,w,SS,sal,f,19,03,2021-10-08_22h22.04.757,WordFreq,2021.1.4,MacIntel,62.5,,,,,,
,,w,0,2.536,0,4,4,9,1,casterd,nonword,n,SS,sal,f,19,03,2021-10-08_22h22.04.757,WordFreq,2021.1.4,MacIntel,62.5,,,,,,
,,w,1,1.186,0,5,5,0,1,dog,word,w,S,sal,f,19,03,2021-10-08_22h22.04.757,WordFreq,2021.1.4,MacIntel,62.5,,,,,,
,,w,1,1.411,0,6,6,1,1,house,word,w,SS,sal,f,19,03,2021-10-08_22h22.04.757,WordFreq,2021.1.4,MacIntel,62.5,,,,,,
,,w,1,4.588,0,7,7,2,1,umlaut,word,w,S,sal,f,19,03,2021-10-08_22h22.04.757,WordFreq,2021.1.4,MacIntel,62.5,,,,,,
,,n,1,2.548,0,8,8,7,1,imleit,nonword,n,SS,sal,f,19,03,2021-10-08_22h22.04.757,WordFreq,2021.1.4,MacIntel,62.5,,,,,,
,,w,0,2.59,0,9,9,6,1,haise,nonword,n,S,sal,f,19,03,2021-10-08_22h22.04.757,WordFreq,2021.1.4,MacIntel,62.5,,,,,,
,,n,1,2.284,,,,,,pietry,nonword,n,,sal,f,19,03,2021-10-08_22h22.04.757,WordFreq,2021.1.4,MacIntel,62.5,0,0,0,86,1,88
,,n,1,3.405,,,,,,mutephar,nonword,n,,sal,f,19,03,2021-10-08_22h22.04.757,WordFreq,2021.1.4,MacIntel,62.5,0,1,1,94,1,5
,,w,1,1.508,,,,,,savings,word,w,,sal,f,19,03,2021-10-08_22h22.04.757,WordFreq,2021.1.4,MacIntel,62.5,0,2,2,18,1,23
,,n,0,3.829,,,,,,assiduous,word,w,,sal,f,19,03,2021-10-08_22h22.04.757,WordFreq,2021.1.4,MacIntel,62.5,0,3,3,0,1,1
,,w,1,1.304,,,,,,debating,word,w,,sal,f,19,03,2021-10-08_22h22.04.757,WordFreq,2021.1.4,MacIntel,62.5,0,4,4,37,1,4
,,n,1,2.067,,,,,,psychocel,nonword,n,,sal,f,19,03,2021-10-08_22h22.04.757,WordFreq,2021.1.4,MacIntel,62.5,0,5,5,84,1,4
,,n,0,1.575,,,,,,elegies,word,w,,sal,f,19,03,2021-10-08_22h22.04.757,WordFreq,2021.1.4,MacIntel,62.5,0,6,6,38,1,1
,,w,1,3.114,,,,,,scientific,word,w,,sal,f,19,03,2021-10-08_22h22.04.757,WordFreq,2021.1.4,MacIntel,62.5,0,7,7,33,1,86
,,n,1,1.675,,,,,,physocs,nonword,n,,sal,f,19,03,2021-10-08_22h22.04.757,WordFreq,2021.1.4,MacIntel,62.5,0,8,8,62,1,22
,,w,1,1.441,,,,,,education,word,w,,sal,f,19,03,2021-10-08_22h22.04.757,WordFreq,2021.1.4,MacIntel,62.5,0,9,9,7,1,214
,,w,1,2.22,,,,,,limousine,word,w,,sal,f,19,03,2021-10-08_22h22.04.757,WordFreq,2021.1.4,MacIntel,62.5,0,10,10,10,1,4
,,w,1,1.859,,,,,,psychical,word,w,,sal,f,19,03,2021-10-08_22h22.04.757,WordFreq,2021.1.4,MacIntel,62.5,0,11,11,24,1,4
,,n,1,1.857,,,,,,ontellectiel,nonword,n,,sal,f,19,03,2021-10-08_22h22.04.757,WordFreq,2021.1.4,MacIntel,62.5,0,12,12,111,1,68
,,w,0,1.579,,,,,,poctere,nonword,n,,sal,f,19,03,2021-10-08_22h22.04.757,WordFreq,2021.1.4,MacIntel,62.5,0,13,13,85,1,162
,,w,1,3.23,,,,,,altruistic,word,w,,sal,f,19,03,2021-10-08_22h22.04.757,WordFreq,2021.1.4,MacIntel,62.5,0,14,14,49,1,1
,,w,1,1.259,,,,,,government,word,w,,sal,f,19,03,2021-10-08_22h22.04.757,WordFreq,2021.1.4,MacIntel,62.5,0,15,15,44,1,417
,,w,0,4.096,,,,,,robuttel,nonword,n,,sal,f,19,03,2021-10-08_22h22.04.757,WordFreq,2021.1.4,MacIntel,62.5,0,16,16,116,1,2
,,n,1,4.983,,,,,,unsumble,nonword,n,,sal,f,19,03,2021-10-08_22h22.04.757,WordFreq,2021.1.4,MacIntel,62.5,0,17,17,102,1,11
,,w,1,1.372,,,,,,condolence,word,w,,sal,f,19,03,2021-10-08_22h22.04.757,WordFreq,2021.1.4,MacIntel,62.5,0,18,18,6,1,1
,,,0,,,,,,,calestoel,nonword,n,,sal,f,19,03,2021-10-08_22h22.04.757,WordFreq,2021.1.4,MacIntel,62.5,0,19,19,90,1,8
,,,0,,,,,,,urchastre,nonword,n,,sal,f,19,03,2021-10-08_22h22.04.757,WordFreq,2021.1.4,MacIntel,62.5,0,20,20,80,1,60
,,w,0,1.584,,,,,,letarery,nonword,n,,sal,f,19,03,2021-10-08_22h22.04.757,WordFreq,2021.1.4,MacIntel,62.5,0,21,21,73,1,78
,,n,1,1.692,,,,,,beetofoc,nonword,n,,sal,f,19,03,2021-10-08_22h22.04.757,WordFreq,2021.1.4,MacIntel,62.5,0,22,22,74,1,1
,,,0,,,,,,,percopoence,nonword,n,,sal,f,19,03,2021-10-08_22h22.04.757,WordFreq,2021.1.4,MacIntel,62.5,0,23,23,117,1,1
,,n,1,1.633,,,,,,lewyor,nonword,n,,sal,f,19,03,2021-10-08_22h22.04.757,WordFreq,2021.1.4,MacIntel,62.5,0,24,24,61,1,43
,,,0,,,,,,,eltruostoc,nonword,n,,sal,f,19,03,2021-10-08_22h22.04.757,WordFreq,2021.1.4,MacIntel,62.5,0,25,25,109,1,1
,,w,1,1.246,,,,,,theistic,word,w,,sal,f,19,03,2021-10-08_22h22.04.757,WordFreq,2021.1.4,MacIntel,62.5,0,26,26,58,1,1
,,w,1,1.203,,,,,,metaphor,word,w,,sal,f,19,03,2021-10-08_22h22.04.757,WordFreq,2021.1.4,MacIntel,62.5,0,27,27,34,1,5
,,n,0,1.999,,,,,,erudition,word,w,,sal,f,19,03,2021-10-08_22h22.04.757,WordFreq,2021.1.4,MacIntel,62.5,0,28,28,41,1,1
,,n,1,1.508,,,,,,sevongs,nonword,n,,sal,f,19,03,2021-10-08_22h22.04.757,WordFreq,2021.1.4,MacIntel,62.5,0,29,29,78,1,23
,,w,1,1.087,,,,,,churches,word,w,,sal,f,19,03,2021-10-08_22h22.04.757,WordFreq,2021.1.4,MacIntel,62.5,0,30,30,36,1,96
,,w,1,1.215,,,,,,physics,word,w,,sal,f,19,03,2021-10-08_22h22.04.757,WordFreq,2021.1.4,MacIntel,62.5,0,31,31,2,1,22
,,w,1,1.059,,,,,,economics,word,w,,sal,f,19,03,2021-10-08_22h22.04.757,WordFreq,2021.1.4,MacIntel,62.5,0,32,32,28,1,17
,,w,1,1.83,,,,,,pedagogue,word,w,,sal,f,19,03,2021-10-08_22h22.04.757,WordFreq,2021.1.4,MacIntel,62.5,0,33,33,23,1,1
,,w,0,1.329,,,,,,cheroteble,nonword,n,,sal,f,19,03,2021-10-08_22h22.04.757,WordFreq,2021.1.4,MacIntel,62.5,0,34,34,92,1,5
,,n,0,1.268,,,,,,etcher,word,w,,sal,f,19,03,2021-10-08_22h22.04.757,WordFreq,2021.1.4,MacIntel,62.5,0,35,35,40,1,1
,,n,1,1.418,,,,,,servoce,nonword,n,,sal,f,19,03,2021-10-08_22h22.04.757,WordFreq,2021.1.4,MacIntel,62.5,0,36,36,75,1,313
,,n,0,1.085,,,,,,orchestra,word,w,,sal,f,19,03,2021-10-08_22h22.04.757,WordFreq,2021.1.4,MacIntel,62.5,0,37,37,20,1,60
,,,0,,,,,,,essaduoas,nonword,n,,sal,f,19,03,2021-10-08_22h22.04.757,WordFreq,2021.1.4,MacIntel,62.5,0,38,38,60,1,1
,,w,1,1.533,,,,,,beatific,word,w,,sal,f,19,03,2021-10-08_22h22.04.757,WordFreq,2021.1.4,MacIntel,62.5,0,39,39,14,1,1
,,w,1,1.133,,,,,,amicable,word,w,,sal,f,19,03,2021-10-08_22h22.04.757,WordFreq,2021.1.4,MacIntel,62.5,0,40,40,52,1,1
,,w,0,1.935,,,,,,essets,nonword,n,,sal,f,19,03,2021-10-08_22h22.04.757,WordFreq,2021.1.4,MacIntel,62.5,0,41,41,115,1,13
,,w,0,1.682,,,,,,relogoous,nonword,n,,sal,f,19,03,2021-10-08_22h22.04.757,WordFreq,2021.1.4,MacIntel,62.5,0,42,42,81,1,165
,,n,1,1.447,,,,,,rivurence,nonword,n,,sal,f,19,03,2021-10-08_22h22.04.757,WordFreq,2021.1.4,MacIntel,62.5,0,43,43,79,1,5
,,w,1,1.842,,,,,,spiritual,word,w,,sal,f,19,03,2021-10-08_22h22.04.757,WordFreq,2021.1.4,MacIntel,62.5,0,44,44,12,1,64
,,w,1,1.176,,,,,,initiative,word,w,,sal,f,19,03,2021-10-08_22h22.04.757,WordFreq,2021.1.4,MacIntel,62.5,0,45,45,47,1,32
,,n,1,1.297,,,,,,scoentofoc,nonword,n,,sal,f,19,03,2021-10-08_22h22.04.757,WordFreq,2021.1.4,MacIntel,62.5,0,46,46,93,1,86
,,n,1,1.821,,,,,,onotoetove,nonword,n,,sal,f,19,03,2021-10-08_22h22.04.757,WordFreq,2021.1.4,MacIntel,62.5,0,47,47,107,1,32
,,,0,,,,,,,eutomobole,nonword,n,,sal,f,19,03,2021-10-08_22h22.04.757,WordFreq,2021.1.4,MacIntel,62.5,0,48,48,65,1,50
,,w,1,1.835,,,,,,earthly,word,w,,sal,f,19,03,2021-10-08_22h22.04.757,WordFreq,2021.1.4,MacIntel,62.5,0,49,49,31,1,6
,,w,1,1.331,,,,,,market,word,w,,sal,f,19,03,2021-10-08_22h22.04.757,WordFreq,2021.1.4,MacIntel,62.5,0,50,50,16,1,133
,,w,1,1.148,,,,,,judiciary,word,w,,sal,f,19,03,2021-10-08_22h22.04.757,WordFreq,2021.1.4,MacIntel,62.5,0,51,51,54,1,3
,,n,1,1.41,,,,,,chencels,nonword,n,,sal,f,19,03,2021-10-08_22h22.04.757,WordFreq,2021.1.4,MacIntel,62.5,0,52,52,87,1,1
,,n,1,1.339,,,,,,bruker,nonword,n,,sal,f,19,03,2021-10-08_22h22.04.757,WordFreq,2021.1.4,MacIntel,62.5,0,53,53,95,1,1
,,,0,,,,,,,convovoeloty,nonword,n,,sal,f,19,03,2021-10-08_22h22.04.757,WordFreq,2021.1.4,MacIntel,62.5,0,54,54,99,1,1
,,w,1,1.614,,,,,,literary,word,w,,sal,f,19,03,2021-10-08_22h22.04.757,WordFreq,2021.1.4,MacIntel,62.5,0,55,55,13,1,78
,,w,0,1.363,,,,,,froandly,nonword,n,,sal,f,19,03,2021-10-08_22h22.04.757,WordFreq,2021.1.4,MacIntel,62.5,0,56,56,68,1,61
,,,0,,,,,,,statistics,word,w,,sal,f,19,03,2021-10-08_22h22.04.757,WordFreq,2021.1.4,MacIntel,62.5,0,57,57,9,1,1
,,n,1,2.878,,,,,,peontong,nonword,n,,sal,f,19,03,2021-10-08_22h22.04.757,WordFreq,2021.1.4,MacIntel,62.5,0,58,58,82,1,59
,,w,1,2.297,,,,,,frugality,word,w,,sal,f,19,03,2021-10-08_22h22.04.757,WordFreq,2021.1.4,MacIntel,62.5,0,59,59,43,1,2
,,w,1,2.182,,,,,,poetry,word,w,,sal,f,19,03,2021-10-08_22h22.04.757,WordFreq,2021.1.4,MacIntel,62.5,0,60,60,26,1,88
,,w,1,2.118,,,,,,painting,word,w,,sal,f,19,03,2021-10-08_22h22.04.757,WordFreq,2021.1.4,MacIntel,62.5,0,61,61,22,1,59
,,w,1,1.909,,,,,,religious,word,w,,sal,f,19,03,2021-10-08_22h22.04.757,WordFreq,2021.1.4,MacIntel,62.5,0,62,62,21,1,165
,,n,1,2.381,,,,,,erudotoon,nonword,n,,sal,f,19,03,2021-10-08_22h22.04.757,WordFreq,2021.1.4,MacIntel,62.5,0,63,63,101,1,1
,,n,0,1.356,,,,,,inductive,word,w,,sal,f,19,03,2021-10-08_22h22.04.757,WordFreq,2021.1.4,MacIntel,62.5,0,64,64,46,1,1
,,,0,,,,,,,stetostocs,nonword,n,,sal,f,19,03,2021-10-08_22h22.04.757,WordFreq,2021.1.4,MacIntel,62.5,0,65,65,69,1,1
,,n,1,1.864,,,,,,huspoteloty,nonword,n,,sal,f,19,03,2021-10-08_22h22.04.757,WordFreq,2021.1.4,MacIntel,62.5,0,66,66,105,1,6
,,w,1,1.796,,,,,,assets,word,w,,sal,f,19,03,2021-10-08_22h22.04.757,WordFreq,2021.1.4,MacIntel,62.5,0,67,67,55,1,13
,,w,0,1.833,,,,,,merket,nonword,n,,sal,f,19,03,2021-10-08_22h22.04.757,WordFreq,2021.1.4,MacIntel,62.5,0,68,68,76,1,133
,,w,1,2.11,,,,,,automobile,word,w,,sal,f,19,03,2021-10-08_22h22.04.757,WordFreq,2021.1.4,MacIntel,62.5,0,69,69,5,1,50
,,w,0,1.684,,,,,,charches,nonword,n,,sal,f,19,03,2021-10-08_22h22.04.757,WordFreq,2021.1.4,MacIntel,62.5,0,70,70,96,1,96
,,n,1,1.502,,,,,,knuwlidge,nonword,n,,sal,f,19,03,2021-10-08_22h22.04.757,WordFreq,2021.1.4,MacIntel,62.5,0,71,71,119,1,145
,,w,0,1.746,,,,,,vognette,nonword,n,,sal,f,19,03,2021-10-08_22h22.04.757,WordFreq,2021.1.4,MacIntel,62.5,0,72,72,108,1,2
,,w,1,1.604,,,,,,conviviality,word,w,,sal,f,19,03,2021-10-08_22h22.04.757,WordFreq,2021.1.4,MacIntel,62.5,0,73,73,39,1,1
,,n,1,2.061,,,,,,huevanly,nonword,n,,sal,f,19,03,2021-10-08_22h22.04.757,WordFreq,2021.1.4,MacIntel,62.5,0,74,74,89,1,9
,,,0,,,,,,,vignette,word,w,,sal,f,19,03,2021-10-08_22h22.04.757,WordFreq,2021.1.4,MacIntel,62.5,0,75,75,48,1,2
,,n,1,1.349,,,,,,iducetuon,nonword,n,,sal,f,19,03,2021-10-08_22h22.04.757,WordFreq,2021.1.4,MacIntel,62.5,0,76,76,67,1,214
,,w,1,2.214,,,,,,picture,word,w,,sal,f,19,03,2021-10-08_22h22.04.757,WordFreq,2021.1.4,MacIntel,62.5,0,77,77,25,1,162
,,n,1,4.717,,,,,,gavirnmunt,nonword,n,,sal,f,19,03,2021-10-08_22h22.04.757,WordFreq,2021.1.4,MacIntel,62.5,0,78,78,104,1,417
,,w,0,2.764,,,,,,benogn,nonword,n,,sal,f,19,03,2021-10-08_22h22.04.757,WordFreq,2021.1.4,MacIntel,62.5,0,79,79,77,1,1
,,w,1,2.159,,,,,,intellectual,word,w,,sal,f,19,03,2021-10-08_22h22.04.757,WordFreq,2021.1.4,MacIntel,62.5,0,80,80,51,1,68
,,n,1,1.43,,,,,,aurthly,nonword,n,,sal,f,19,03,2021-10-08_22h22.04.757,WordFreq,2021.1.4,MacIntel,62.5,0,81,81,91,1,6
,,n,0,1.568,,,,,,benign,word,w,,sal,f,19,03,2021-10-08_22h22.04.757,WordFreq,2021.1.4,MacIntel,62.5,0,82,82,17,1,1
,,w,0,1.934,,,,,,padegigue,nonword,n,,sal,f,19,03,2021-10-08_22h22.04.757,WordFreq,2021.1.4,MacIntel,62.5,0,83,83,83,1,1
,,w,0,1.86,,,,,,sampothy,nonword,n,,sal,f,19,03,2021-10-08_22h22.04.757,WordFreq,2021.1.4,MacIntel,62.5,0,84,84,63,1,6
,,n,1,1.863,,,,,,debetong,nonword,n,,sal,f,19,03,2021-10-08_22h22.04.757,WordFreq,2021.1.4,MacIntel,62.5,0,85,85,97,1,4
,,,0,,,,,,,judocoery,nonword,n,,sal,f,19,03,2021-10-08_22h22.04.757,WordFreq,2021.1.4,MacIntel,62.5,0,86,86,114,1,3
,,n,0,1.53,,,,,,ensemble,word,w,,sal,f,19,03,2021-10-08_22h22.04.757,WordFreq,2021.1.4,MacIntel,62.5,0,87,87,42,1,11
,,w,1,1.746,,,,,,broker,word,w,,sal,f,19,03,2021-10-08_22h22.04.757,WordFreq,2021.1.4,MacIntel,62.5,0,88,88,35,1,1
,,w,0,1.73,,,,,,ancourced,nonword,n,,sal,f,19,03,2021-10-08_22h22.04.757,WordFreq,2021.1.4,MacIntel,62.5,0,89,89,113,1,1
,,w,0,1.53,,,,,,acinamocs,nonword,n,,sal,f,19,03,2021-10-08_22h22.04.757,WordFreq,2021.1.4,MacIntel,62.5,0,90,90,88,1,17
,,w,1,1.359,,,,,,barrister,word,w,,sal,f,19,03,2021-10-08_22h22.04.757,WordFreq,2021.1.4,MacIntel,62.5,0,91,91,11,1,1
,,w,1,1.435,,,,,,chancels,word,w,,sal,f,19,03,2021-10-08_22h22.04.757,WordFreq,2021.1.4,MacIntel,62.5,0,92,92,27,1,1
,,,0,,,,,,,mundene,nonword,n,,sal,f,19,03,2021-10-08_22h22.04.757,WordFreq,2021.1.4,MacIntel,62.5,0,93,93,110,1,3
,,n,1,1.879,,,,,,cindalence,nonword,n,,sal,f,19,03,2021-10-08_22h22.04.757,WordFreq,2021.1.4,MacIntel,62.5,0,94,94,66,1,1
,,w,0,1.719,,,,,,berroster,nonword,n,,sal,f,19,03,2021-10-08_22h22.04.757,WordFreq,2021.1.4,MacIntel,62.5,0,95,95,71,1,1
,,,0,,,,,,,emoceble,nonword,n,,sal,f,19,03,2021-10-08_22h22.04.757,WordFreq,2021.1.4,MacIntel,62.5,0,96,96,112,1,1
,,w,1,1.75,,,,,,service,word,w,,sal,f,19,03,2021-10-08_22h22.04.757,WordFreq,2021.1.4,MacIntel,62.5,0,97,97,15,1,313
,,,0,,,,,,,uncoerced,word,w,,sal,f,19,03,2021-10-08_22h22.04.757,WordFreq,2021.1.4,MacIntel,62.5,0,98,98,53,1,1
,,w,1,1.82,,,,,,reverence,word,w,,sal,f,19,03,2021-10-08_22h22.04.757,WordFreq,2021.1.4,MacIntel,62.5,0,99,99,19,1,5
,,w,0,1.839,,,,,,theostoc,nonword,n,,sal,f,19,03,2021-10-08_22h22.04.757,WordFreq,2021.1.4,MacIntel,62.5,0,100,100,118,1,1
,,n,1,1.543,,,,,,alegoes,nonword,n,,sal,f,19,03,2021-10-08_22h22.04.757,WordFreq,2021.1.4,MacIntel,62.5,0,101,101,98,1,1
,,w,1,1.531,,,,,,heavenly,word,w,,sal,f,19,03,2021-10-08_22h22.04.757,WordFreq,2021.1.4,MacIntel,62.5,0,102,102,29,1,9
,,w,1,1.568,,,,,,hospitality,word,w,,sal,f,19,03,2021-10-08_22h22.04.757,WordFreq,2021.1.4,MacIntel,62.5,0,103,103,45,1,6
,,,0,,,,,,,charitable,word,w,,sal,f,19,03,2021-10-08_22h22.04.757,WordFreq,2021.1.4,MacIntel,62.5,0,104,104,32,1,5
,,n,1,1.76,,,,,,onductove,nonword,n,,sal,f,19,03,2021-10-08_22h22.04.757,WordFreq,2021.1.4,MacIntel,62.5,0,105,105,106,1,1
,,n,1,1.378,,,,,,sporotuel,nonword,n,,sal,f,19,03,2021-10-08_22h22.04.757,WordFreq,2021.1.4,MacIntel,62.5,0,106,106,72,1,64
,,,0,,,,,,,lawyer,word,w,,sal,f,19,03,2021-10-08_22h22.04.757,WordFreq,2021.1.4,MacIntel,62.5,0,107,107,1,1,43
,,w,0,6.967,,,,,,frageloty,nonword,n,,sal,f,19,03,2021-10-08_22h22.04.757,WordFreq,2021.1.4,MacIntel,62.5,0,108,108,103,1,2
,,,0,,,,,,,friendly,word,w,,sal,f,19,03,2021-10-08_22h22.04.757,WordFreq,2021.1.4,MacIntel,62.5,0,109,109,8,1,61
,,w,1,1.647,,,,,,mundane,word,w,,sal,f,19,03,2021-10-08_22h22.04.757,WordFreq,2021.1.4,MacIntel,62.5,0,110,110,50,1,3
,,n,1,1.996,,,,,,otchur,nonword,n,,sal,f,19,03,2021-10-08_22h22.04.757,WordFreq,2021.1.4,MacIntel,62.5,0,111,111,100,1,1
,,w,1,1.461,,,,,,celestial,word,w,,sal,f,19,03,2021-10-08_22h22.04.757,WordFreq,2021.1.4,MacIntel,62.5,0,112,112,30,1,8
,,,0,,,,,,,rebuttal,word,w,,sal,f,19,03,2021-10-08_22h22.04.757,WordFreq,2021.1.4,MacIntel,62.5,0,113,113,56,1,2
,,w,1,1.996,,,,,,liberties,word,w,,sal,f,19,03,2021-10-08_22h22.04.757,WordFreq,2021.1.4,MacIntel,62.5,0,114,114,4,1,8
,,,0,,,,,,,knowledge,word,w,,sal,f,19,03,2021-10-08_22h22.04.757,WordFreq,2021.1.4,MacIntel,62.5,0,115,115,59,1,145
,,w,1,1.632,,,,,,percipience,word,w,,sal,f,19,03,2021-10-08_22h22.04.757,WordFreq,2021.1.4,MacIntel,62.5,0,116,116,57,1,1
,,w,1,1.244,,,,,,sympathy,word,w,,sal,f,19,03,2021-10-08_22h22.04.757,WordFreq,2021.1.4,MacIntel,62.5,0,117,117,3,1,6
,,n,1,1.331,,,,,,lobertoes,nonword,n,,sal,f,19,03,2021-10-08_22h22.04.757,WordFreq,2021.1.4,MacIntel,62.5,0,118,118,64,1,8
,,n,1,1.411,,,,,,lomousone,nonword,n,,sal,f,19,03,2021-10-08_22h22.04.757,WordFreq,2021.1.4,MacIntel,62.5,0,119,119,70,1,4
