ok1.keys,ok1.rt,resp.keys,resp.corr,resp.rt,practiceTrials.thisRepN,practiceTrials.thisTrialN,practiceTrials.thisN,practiceTrials.thisIndex,practiceTrials.ran,strings,word_nonword,corrans,font,participant,gender (m/f),age,session,date,expName,psychopyVersion,OS,frameRate,trials.thisRepN,trials.thisTrialN,trials.thisN,trials.thisIndex,trials.ran,freq
space,76.823,w,1,2.783,0,0,0,0,1,dog,word,w,S,Student,f,23,03,2021-10-06_01h24.55.494,WordFreq,2021.1.4,MacIntel,50,,,,,,
,,w,1,0.705,0,1,1,4,1,custard,word,w,S,Student,f,23,03,2021-10-06_01h24.55.494,WordFreq,2021.1.4,MacIntel,50,,,,,,
,,w,0,0.502,0,2,2,7,1,imleit,nonword,n,SS,Student,f,23,03,2021-10-06_01h24.55.494,WordFreq,2021.1.4,MacIntel,50,,,,,,
,,,0,,0,3,3,6,1,haise,nonword,n,S,Student,f,23,03,2021-10-06_01h24.55.494,WordFreq,2021.1.4,MacIntel,50,,,,,,
,,n,0,0.449,0,4,4,1,1,house,word,w,SS,Student,f,23,03,2021-10-06_01h24.55.494,WordFreq,2021.1.4,MacIntel,50,,,,,,
,,n,1,1.684,0,5,5,5,1,deg,nonword,n,SS,Student,f,23,03,2021-10-06_01h24.55.494,WordFreq,2021.1.4,MacIntel,50,,,,,,
,,w,1,0.917,0,6,6,3,1,doppleganger,word,w,SS,Student,f,23,03,2021-10-06_01h24.55.494,WordFreq,2021.1.4,MacIntel,50,,,,,,
,,n,1,1.195,0,7,7,8,1,dipplagungor,nonword,n,S,Student,f,23,03,2021-10-06_01h24.55.494,WordFreq,2021.1.4,MacIntel,50,,,,,,
,,n,1,1.09,0,8,8,9,1,casterd,nonword,n,SS,Student,f,23,03,2021-10-06_01h24.55.494,WordFreq,2021.1.4,MacIntel,50,,,,,,
,,n,0,0.772,0,9,9,2,1,umlaut,word,w,S,Student,f,23,03,2021-10-06_01h24.55.494,WordFreq,2021.1.4,MacIntel,50,,,,,,
,,w,0,0.414,,,,,,frageloty,nonword,n,,Student,f,23,03,2021-10-06_01h24.55.494,WordFreq,2021.1.4,MacIntel,50,0,0,0,103,1,2
,,n,1,0.707,,,,,,stetostocs,nonword,n,,Student,f,23,03,2021-10-06_01h24.55.494,WordFreq,2021.1.4,MacIntel,50,0,1,1,69,1,1
,,n,1,0.62,,,,,,sevongs,nonword,n,,Student,f,23,03,2021-10-06_01h24.55.494,WordFreq,2021.1.4,MacIntel,50,0,2,2,78,1,23
,,n,1,0.288,,,,,,huspoteloty,nonword,n,,Student,f,23,03,2021-10-06_01h24.55.494,WordFreq,2021.1.4,MacIntel,50,0,3,3,105,1,6
,,n,0,0.291,,,,,,education,word,w,,Student,f,23,03,2021-10-06_01h24.55.494,WordFreq,2021.1.4,MacIntel,50,0,4,4,7,1,214
,,n,1,1.01,,,,,,aurthly,nonword,n,,Student,f,23,03,2021-10-06_01h24.55.494,WordFreq,2021.1.4,MacIntel,50,0,5,5,91,1,6
,,n,0,0.824,,,,,,pedagogue,word,w,,Student,f,23,03,2021-10-06_01h24.55.494,WordFreq,2021.1.4,MacIntel,50,0,6,6,23,1,1
,,n,1,0.723,,,,,,gavirnmunt,nonword,n,,Student,f,23,03,2021-10-06_01h24.55.494,WordFreq,2021.1.4,MacIntel,50,0,7,7,104,1,417
,,n,0,0.522,,,,,,orchestra,word,w,,Student,f,23,03,2021-10-06_01h24.55.494,WordFreq,2021.1.4,MacIntel,50,0,8,8,20,1,60
,,w,0,0.617,,,,,,eutomobole,nonword,n,,Student,f,23,03,2021-10-06_01h24.55.494,WordFreq,2021.1.4,MacIntel,50,0,9,9,65,1,50
,,w,1,0.515,,,,,,economics,word,w,,Student,f,23,03,2021-10-06_01h24.55.494,WordFreq,2021.1.4,MacIntel,50,0,10,10,28,1,17
,,w,0,0.695,,,,,,vognette,nonword,n,,Student,f,23,03,2021-10-06_01h24.55.494,WordFreq,2021.1.4,MacIntel,50,0,11,11,108,1,2
,,w,0,0.448,,,,,,cindalence,nonword,n,,Student,f,23,03,2021-10-06_01h24.55.494,WordFreq,2021.1.4,MacIntel,50,0,12,12,66,1,1
,,n,1,1.144,,,,,,bruker,nonword,n,,Student,f,23,03,2021-10-06_01h24.55.494,WordFreq,2021.1.4,MacIntel,50,0,13,13,95,1,1
,,n,1,0.716,,,,,,erudotoon,nonword,n,,Student,f,23,03,2021-10-06_01h24.55.494,WordFreq,2021.1.4,MacIntel,50,0,14,14,101,1,1
,,n,0,0.343,,,,,,service,word,w,,Student,f,23,03,2021-10-06_01h24.55.494,WordFreq,2021.1.4,MacIntel,50,0,15,15,15,1,313
,,w,1,0.738,,,,,,vignette,word,w,,Student,f,23,03,2021-10-06_01h24.55.494,WordFreq,2021.1.4,MacIntel,50,0,16,16,48,1,2
,,w,1,0.47,,,,,,painting,word,w,,Student,f,23,03,2021-10-06_01h24.55.494,WordFreq,2021.1.4,MacIntel,50,0,17,17,22,1,59
,,n,1,0.62,,,,,,onotoetove,nonword,n,,Student,f,23,03,2021-10-06_01h24.55.494,WordFreq,2021.1.4,MacIntel,50,0,18,18,107,1,32
,,n,0,0.612,,,,,,churches,word,w,,Student,f,23,03,2021-10-06_01h24.55.494,WordFreq,2021.1.4,MacIntel,50,0,19,19,36,1,96
,,w,0,0.481,,,,,,lomousone,nonword,n,,Student,f,23,03,2021-10-06_01h24.55.494,WordFreq,2021.1.4,MacIntel,50,0,20,20,70,1,4
,,n,0,0.494,,,,,,metaphor,word,w,,Student,f,23,03,2021-10-06_01h24.55.494,WordFreq,2021.1.4,MacIntel,50,0,21,21,34,1,5
,,n,1,0.838,,,,,,physocs,nonword,n,,Student,f,23,03,2021-10-06_01h24.55.494,WordFreq,2021.1.4,MacIntel,50,0,22,22,62,1,22
,,n,0,0.778,,,,,,percipience,word,w,,Student,f,23,03,2021-10-06_01h24.55.494,WordFreq,2021.1.4,MacIntel,50,0,23,23,57,1,1
,,n,1,0.372,,,,,,lobertoes,nonword,n,,Student,f,23,03,2021-10-06_01h24.55.494,WordFreq,2021.1.4,MacIntel,50,0,24,24,64,1,8
,,w,1,0.592,,,,,,theistic,word,w,,Student,f,23,03,2021-10-06_01h24.55.494,WordFreq,2021.1.4,MacIntel,50,0,25,25,58,1,1
,,w,0,0.423,,,,,,ancourced,nonword,n,,Student,f,23,03,2021-10-06_01h24.55.494,WordFreq,2021.1.4,MacIntel,50,0,26,26,113,1,1
,,w,1,0.564,,,,,,amicable,word,w,,Student,f,23,03,2021-10-06_01h24.55.494,WordFreq,2021.1.4,MacIntel,50,0,27,27,52,1,1
,,w,1,0.425,,,,,,statistics,word,w,,Student,f,23,03,2021-10-06_01h24.55.494,WordFreq,2021.1.4,MacIntel,50,0,28,28,9,1,1
,,w,0,0.439,,,,,,urchastre,nonword,n,,Student,f,23,03,2021-10-06_01h24.55.494,WordFreq,2021.1.4,MacIntel,50,0,29,29,80,1,60
,,w,1,0.561,,,,,,automobile,word,w,,Student,f,23,03,2021-10-06_01h24.55.494,WordFreq,2021.1.4,MacIntel,50,0,30,30,5,1,50
,,w,1,0.543,,,,,,ensemble,word,w,,Student,f,23,03,2021-10-06_01h24.55.494,WordFreq,2021.1.4,MacIntel,50,0,31,31,42,1,11
,,w,1,0.589,,,,,,liberties,word,w,,Student,f,23,03,2021-10-06_01h24.55.494,WordFreq,2021.1.4,MacIntel,50,0,32,32,4,1,8
,,n,1,0.69,,,,,,huevanly,nonword,n,,Student,f,23,03,2021-10-06_01h24.55.494,WordFreq,2021.1.4,MacIntel,50,0,33,33,89,1,9
,,n,0,0.888,,,,,,altruistic,word,w,,Student,f,23,03,2021-10-06_01h24.55.494,WordFreq,2021.1.4,MacIntel,50,0,34,34,49,1,1
,,n,1,0.633,,,,,,benogn,nonword,n,,Student,f,23,03,2021-10-06_01h24.55.494,WordFreq,2021.1.4,MacIntel,50,0,35,35,77,1,1
,,n,1,0.355,,,,,,theostoc,nonword,n,,Student,f,23,03,2021-10-06_01h24.55.494,WordFreq,2021.1.4,MacIntel,50,0,36,36,118,1,1
,,w,1,0.586,,,,,,assets,word,w,,Student,f,23,03,2021-10-06_01h24.55.494,WordFreq,2021.1.4,MacIntel,50,0,37,37,55,1,13
,,w,1,0.511,,,,,,heavenly,word,w,,Student,f,23,03,2021-10-06_01h24.55.494,WordFreq,2021.1.4,MacIntel,50,0,38,38,29,1,9
,,w,1,0.581,,,,,,initiative,word,w,,Student,f,23,03,2021-10-06_01h24.55.494,WordFreq,2021.1.4,MacIntel,50,0,39,39,47,1,32
,,n,1,0.704,,,,,,pietry,nonword,n,,Student,f,23,03,2021-10-06_01h24.55.494,WordFreq,2021.1.4,MacIntel,50,0,40,40,86,1,88
,,w,0,0.463,,,,,,psychocel,nonword,n,,Student,f,23,03,2021-10-06_01h24.55.494,WordFreq,2021.1.4,MacIntel,50,0,41,41,84,1,4
,,w,1,1.187,,,,,,hospitality,word,w,,Student,f,23,03,2021-10-06_01h24.55.494,WordFreq,2021.1.4,MacIntel,50,0,42,42,45,1,6
,,w,1,0.54,,,,,,religious,word,w,,Student,f,23,03,2021-10-06_01h24.55.494,WordFreq,2021.1.4,MacIntel,50,0,43,43,21,1,165
,,w,1,0.457,,,,,,sympathy,word,w,,Student,f,23,03,2021-10-06_01h24.55.494,WordFreq,2021.1.4,MacIntel,50,0,44,44,3,1,6
,,w,0,0.328,,,,,,padegigue,nonword,n,,Student,f,23,03,2021-10-06_01h24.55.494,WordFreq,2021.1.4,MacIntel,50,0,45,45,83,1,1
,,n,1,0.635,,,,,,sporotuel,nonword,n,,Student,f,23,03,2021-10-06_01h24.55.494,WordFreq,2021.1.4,MacIntel,50,0,46,46,72,1,64
,,n,0,0.076,,,,,,chancels,word,w,,Student,f,23,03,2021-10-06_01h24.55.494,WordFreq,2021.1.4,MacIntel,50,0,47,47,27,1,1
,,n,1,0.59,,,,,,alegoes,nonword,n,,Student,f,23,03,2021-10-06_01h24.55.494,WordFreq,2021.1.4,MacIntel,50,0,48,48,98,1,1
,,w,1,0.626,,,,,,savings,word,w,,Student,f,23,03,2021-10-06_01h24.55.494,WordFreq,2021.1.4,MacIntel,50,0,49,49,18,1,23
,,w,1,0.699,,,,,,reverence,word,w,,Student,f,23,03,2021-10-06_01h24.55.494,WordFreq,2021.1.4,MacIntel,50,0,50,50,19,1,5
,,w,1,0.434,,,,,,spiritual,word,w,,Student,f,23,03,2021-10-06_01h24.55.494,WordFreq,2021.1.4,MacIntel,50,0,51,51,12,1,64
,,w,0,0.424,,,,,,froandly,nonword,n,,Student,f,23,03,2021-10-06_01h24.55.494,WordFreq,2021.1.4,MacIntel,50,0,52,52,68,1,61
,,n,0,0.756,,,,,,etcher,word,w,,Student,f,23,03,2021-10-06_01h24.55.494,WordFreq,2021.1.4,MacIntel,50,0,53,53,40,1,1
,,w,1,0.653,,,,,,debating,word,w,,Student,f,23,03,2021-10-06_01h24.55.494,WordFreq,2021.1.4,MacIntel,50,0,54,54,37,1,4
,,n,1,0.726,,,,,,essaduoas,nonword,n,,Student,f,23,03,2021-10-06_01h24.55.494,WordFreq,2021.1.4,MacIntel,50,0,55,55,60,1,1
,,w,1,0.588,,,,,,lawyer,word,w,,Student,f,23,03,2021-10-06_01h24.55.494,WordFreq,2021.1.4,MacIntel,50,0,56,56,1,1,43
,,n,1,0.635,,,,,,ontellectiel,nonword,n,,Student,f,23,03,2021-10-06_01h24.55.494,WordFreq,2021.1.4,MacIntel,50,0,57,57,111,1,68
,,w,1,0.805,,,,,,psychical,word,w,,Student,f,23,03,2021-10-06_01h24.55.494,WordFreq,2021.1.4,MacIntel,50,0,58,58,24,1,4
,,n,1,0.627,,,,,,scoentofoc,nonword,n,,Student,f,23,03,2021-10-06_01h24.55.494,WordFreq,2021.1.4,MacIntel,50,0,59,59,93,1,86
,,n,1,0.507,,,,,,knuwlidge,nonword,n,,Student,f,23,03,2021-10-06_01h24.55.494,WordFreq,2021.1.4,MacIntel,50,0,60,60,119,1,145
,,w,1,0.427,,,,,,inductive,word,w,,Student,f,23,03,2021-10-06_01h24.55.494,WordFreq,2021.1.4,MacIntel,50,0,61,61,46,1,1
,,w,0,0.398,,,,,,poctere,nonword,n,,Student,f,23,03,2021-10-06_01h24.55.494,WordFreq,2021.1.4,MacIntel,50,0,62,62,85,1,162
,,n,1,0.678,,,,,,eltruostoc,nonword,n,,Student,f,23,03,2021-10-06_01h24.55.494,WordFreq,2021.1.4,MacIntel,50,0,63,63,109,1,1
,,n,0,0.417,,,,,,earthly,word,w,,Student,f,23,03,2021-10-06_01h24.55.494,WordFreq,2021.1.4,MacIntel,50,0,64,64,31,1,6
,,,0,,,,,,,iducetuon,nonword,n,,Student,f,23,03,2021-10-06_01h24.55.494,WordFreq,2021.1.4,MacIntel,50,0,65,65,67,1,214
,,w,0,0.478,,,,,,servoce,nonword,n,,Student,f,23,03,2021-10-06_01h24.55.494,WordFreq,2021.1.4,MacIntel,50,0,66,66,75,1,313
,,n,0,0.886,,,,,,benign,word,w,,Student,f,23,03,2021-10-06_01h24.55.494,WordFreq,2021.1.4,MacIntel,50,0,67,67,17,1,1
,,w,1,0.829,,,,,,poetry,word,w,,Student,f,23,03,2021-10-06_01h24.55.494,WordFreq,2021.1.4,MacIntel,50,0,68,68,26,1,88
,,w,1,0.58,,,,,,scientific,word,w,,Student,f,23,03,2021-10-06_01h24.55.494,WordFreq,2021.1.4,MacIntel,50,0,69,69,33,1,86
,,n,0,1.011,,,,,,rebuttal,word,w,,Student,f,23,03,2021-10-06_01h24.55.494,WordFreq,2021.1.4,MacIntel,50,0,70,70,56,1,2
,,w,1,0.622,,,,,,charitable,word,w,,Student,f,23,03,2021-10-06_01h24.55.494,WordFreq,2021.1.4,MacIntel,50,0,71,71,32,1,5
,,n,0,0.788,,,,,,elegies,word,w,,Student,f,23,03,2021-10-06_01h24.55.494,WordFreq,2021.1.4,MacIntel,50,0,72,72,38,1,1
,,n,0,0.751,,,,,,assiduous,word,w,,Student,f,23,03,2021-10-06_01h24.55.494,WordFreq,2021.1.4,MacIntel,50,0,73,73,0,1,1
,,w,1,0.755,,,,,,limousine,word,w,,Student,f,23,03,2021-10-06_01h24.55.494,WordFreq,2021.1.4,MacIntel,50,0,74,74,10,1,4
,,w,1,0.758,,,,,,literary,word,w,,Student,f,23,03,2021-10-06_01h24.55.494,WordFreq,2021.1.4,MacIntel,50,0,75,75,13,1,78
,,n,1,0.745,,,,,,emoceble,nonword,n,,Student,f,23,03,2021-10-06_01h24.55.494,WordFreq,2021.1.4,MacIntel,50,0,76,76,112,1,1
,,n,1,0.637,,,,,,charches,nonword,n,,Student,f,23,03,2021-10-06_01h24.55.494,WordFreq,2021.1.4,MacIntel,50,0,77,77,96,1,96
,,n,1,0.641,,,,,,chencels,nonword,n,,Student,f,23,03,2021-10-06_01h24.55.494,WordFreq,2021.1.4,MacIntel,50,0,78,78,87,1,1
,,n,0,0.484,,,,,,intellectual,word,w,,Student,f,23,03,2021-10-06_01h24.55.494,WordFreq,2021.1.4,MacIntel,50,0,79,79,51,1,68
,,n,1,1.231,,,,,,mutephar,nonword,n,,Student,f,23,03,2021-10-06_01h24.55.494,WordFreq,2021.1.4,MacIntel,50,0,80,80,94,1,5
,,n,1,0.732,,,,,,convovoeloty,nonword,n,,Student,f,23,03,2021-10-06_01h24.55.494,WordFreq,2021.1.4,MacIntel,50,0,81,81,99,1,1
,,w,0,2.776,,,,,,peontong,nonword,n,,Student,f,23,03,2021-10-06_01h24.55.494,WordFreq,2021.1.4,MacIntel,50,0,82,82,82,1,59
,,n,1,0.796,,,,,,judocoery,nonword,n,,Student,f,23,03,2021-10-06_01h24.55.494,WordFreq,2021.1.4,MacIntel,50,0,83,83,114,1,3
,,n,0,0.845,,,,,,beatific,word,w,,Student,f,23,03,2021-10-06_01h24.55.494,WordFreq,2021.1.4,MacIntel,50,0,84,84,14,1,1
,,w,1,0.495,,,,,,market,word,w,,Student,f,23,03,2021-10-06_01h24.55.494,WordFreq,2021.1.4,MacIntel,50,0,85,85,16,1,133
,,n,1,0.711,,,,,,cheroteble,nonword,n,,Student,f,23,03,2021-10-06_01h24.55.494,WordFreq,2021.1.4,MacIntel,50,0,86,86,92,1,5
,,n,1,0.658,,,,,,onductove,nonword,n,,Student,f,23,03,2021-10-06_01h24.55.494,WordFreq,2021.1.4,MacIntel,50,0,87,87,106,1,1
,,n,1,0.335,,,,,,lewyor,nonword,n,,Student,f,23,03,2021-10-06_01h24.55.494,WordFreq,2021.1.4,MacIntel,50,0,88,88,61,1,43
,,w,1,0.721,,,,,,condolence,word,w,,Student,f,23,03,2021-10-06_01h24.55.494,WordFreq,2021.1.4,MacIntel,50,0,89,89,6,1,1
,,n,1,0.412,,,,,,calestoel,nonword,n,,Student,f,23,03,2021-10-06_01h24.55.494,WordFreq,2021.1.4,MacIntel,50,0,90,90,90,1,8
,,w,0,0.694,,,,,,robuttel,nonword,n,,Student,f,23,03,2021-10-06_01h24.55.494,WordFreq,2021.1.4,MacIntel,50,0,91,91,116,1,2
,,w,0,0.808,,,,,,mundene,nonword,n,,Student,f,23,03,2021-10-06_01h24.55.494,WordFreq,2021.1.4,MacIntel,50,0,92,92,110,1,3
,,w,1,0.629,,,,,,friendly,word,w,,Student,f,23,03,2021-10-06_01h24.55.494,WordFreq,2021.1.4,MacIntel,50,0,93,93,8,1,61
,,n,1,0.809,,,,,,beetofoc,nonword,n,,Student,f,23,03,2021-10-06_01h24.55.494,WordFreq,2021.1.4,MacIntel,50,0,94,94,74,1,1
,,n,1,1.034,,,,,,percopoence,nonword,n,,Student,f,23,03,2021-10-06_01h24.55.494,WordFreq,2021.1.4,MacIntel,50,0,95,95,117,1,1
,,w,1,0.56,,,,,,celestial,word,w,,Student,f,23,03,2021-10-06_01h24.55.494,WordFreq,2021.1.4,MacIntel,50,0,96,96,30,1,8
,,w,1,0.672,,,,,,frugality,word,w,,Student,f,23,03,2021-10-06_01h24.55.494,WordFreq,2021.1.4,MacIntel,50,0,97,97,43,1,2
,,w,1,0.434,,,,,,knowledge,word,w,,Student,f,23,03,2021-10-06_01h24.55.494,WordFreq,2021.1.4,MacIntel,50,0,98,98,59,1,145
,,w,1,0.67,,,,,,uncoerced,word,w,,Student,f,23,03,2021-10-06_01h24.55.494,WordFreq,2021.1.4,MacIntel,50,0,99,99,53,1,1
,,w,1,0.601,,,,,,barrister,word,w,,Student,f,23,03,2021-10-06_01h24.55.494,WordFreq,2021.1.4,MacIntel,50,0,100,100,11,1,1
,,w,1,0.459,,,,,,picture,word,w,,Student,f,23,03,2021-10-06_01h24.55.494,WordFreq,2021.1.4,MacIntel,50,0,101,101,25,1,162
,,w,0,0.513,,,,,,letarery,nonword,n,,Student,f,23,03,2021-10-06_01h24.55.494,WordFreq,2021.1.4,MacIntel,50,0,102,102,73,1,78
,,n,1,0.964,,,,,,merket,nonword,n,,Student,f,23,03,2021-10-06_01h24.55.494,WordFreq,2021.1.4,MacIntel,50,0,103,103,76,1,133
,,n,1,0.748,,,,,,sampothy,nonword,n,,Student,f,23,03,2021-10-06_01h24.55.494,WordFreq,2021.1.4,MacIntel,50,0,104,104,63,1,6
,,n,1,0.499,,,,,,otchur,nonword,n,,Student,f,23,03,2021-10-06_01h24.55.494,WordFreq,2021.1.4,MacIntel,50,0,105,105,100,1,1
,,n,0,0.731,,,,,,conviviality,word,w,,Student,f,23,03,2021-10-06_01h24.55.494,WordFreq,2021.1.4,MacIntel,50,0,106,106,39,1,1
,,w,1,0.924,,,,,,broker,word,w,,Student,f,23,03,2021-10-06_01h24.55.494,WordFreq,2021.1.4,MacIntel,50,0,107,107,35,1,1
,,n,1,0.693,,,,,,debetong,nonword,n,,Student,f,23,03,2021-10-06_01h24.55.494,WordFreq,2021.1.4,MacIntel,50,0,108,108,97,1,4
,,n,0,0.659,,,,,,judiciary,word,w,,Student,f,23,03,2021-10-06_01h24.55.494,WordFreq,2021.1.4,MacIntel,50,0,109,109,54,1,3
,,w,1,0.665,,,,,,physics,word,w,,Student,f,23,03,2021-10-06_01h24.55.494,WordFreq,2021.1.4,MacIntel,50,0,110,110,2,1,22
,,w,1,0.734,,,,,,mundane,word,w,,Student,f,23,03,2021-10-06_01h24.55.494,WordFreq,2021.1.4,MacIntel,50,0,111,111,50,1,3
,,n,1,0.887,,,,,,relogoous,nonword,n,,Student,f,23,03,2021-10-06_01h24.55.494,WordFreq,2021.1.4,MacIntel,50,0,112,112,81,1,165
,,n,1,0.581,,,,,,berroster,nonword,n,,Student,f,23,03,2021-10-06_01h24.55.494,WordFreq,2021.1.4,MacIntel,50,0,113,113,71,1,1
,,n,1,0.713,,,,,,unsumble,nonword,n,,Student,f,23,03,2021-10-06_01h24.55.494,WordFreq,2021.1.4,MacIntel,50,0,114,114,102,1,11
,,w,1,0.487,,,,,,government,word,w,,Student,f,23,03,2021-10-06_01h24.55.494,WordFreq,2021.1.4,MacIntel,50,0,115,115,44,1,417
,,n,1,0.607,,,,,,acinamocs,nonword,n,,Student,f,23,03,2021-10-06_01h24.55.494,WordFreq,2021.1.4,MacIntel,50,0,116,116,88,1,17
,,n,0,0.649,,,,,,erudition,word,w,,Student,f,23,03,2021-10-06_01h24.55.494,WordFreq,2021.1.4,MacIntel,50,0,117,117,41,1,1
,,n,1,0.443,,,,,,essets,nonword,n,,Student,f,23,03,2021-10-06_01h24.55.494,WordFreq,2021.1.4,MacIntel,50,0,118,118,115,1,13
,,n,1,0.59,,,,,,rivurence,nonword,n,,Student,f,23,03,2021-10-06_01h24.55.494,WordFreq,2021.1.4,MacIntel,50,0,119,119,79,1,5
