ok1.keys,ok1.rt,resp.keys,resp.corr,resp.rt,practiceTrials.thisRepN,practiceTrials.thisTrialN,practiceTrials.thisN,practiceTrials.thisIndex,practiceTrials.ran,strings,word_nonword,corrans,font,participant,gender (m/f),age,session,date,expName,psychopyVersion,OS,frameRate,trials.thisRepN,trials.thisTrialN,trials.thisN,trials.thisIndex,trials.ran,freq
space,49.7898,w,1,0.7611,0,0,0,3,1,doppleganger,word,w,SS,Tally,female,19,03,2021-10-04_12h49.11.365,WordFreq,2021.1.4,Win32,59.9880024,,,,,,
,,n,1,1.4666,0,1,1,5,1,deg,nonword,n,SS,Tally,female,19,03,2021-10-04_12h49.11.365,WordFreq,2021.1.4,Win32,59.9880024,,,,,,
,,w,1,0.5641,0,2,2,1,1,house,word,w,SS,Tally,female,19,03,2021-10-04_12h49.11.365,WordFreq,2021.1.4,Win32,59.9880024,,,,,,
,,n,1,1.9468,0,3,3,8,1,dipplagungor,nonword,n,S,Tally,female,19,03,2021-10-04_12h49.11.365,WordFreq,2021.1.4,Win32,59.9880024,,,,,,
,,n,1,1.6602,0,4,4,9,1,casterd,nonword,n,SS,Tally,female,19,03,2021-10-04_12h49.11.365,WordFreq,2021.1.4,Win32,59.9880024,,,,,,
,,n,1,3.7183,0,5,5,6,1,haise,nonword,n,S,Tally,female,19,03,2021-10-04_12h49.11.365,WordFreq,2021.1.4,Win32,59.9880024,,,,,,
,,w,1,0.7353,0,6,6,0,1,dog,word,w,S,Tally,female,19,03,2021-10-04_12h49.11.365,WordFreq,2021.1.4,Win32,59.9880024,,,,,,
,,n,0,1.0346,0,7,7,2,1,umlaut,word,w,S,Tally,female,19,03,2021-10-04_12h49.11.365,WordFreq,2021.1.4,Win32,59.9880024,,,,,,
,,n,1,1.018,0,8,8,7,1,imleit,nonword,n,SS,Tally,female,19,03,2021-10-04_12h49.11.365,WordFreq,2021.1.4,Win32,59.9880024,,,,,,
,,w,1,0.8178,0,9,9,4,1,custard,word,w,S,Tally,female,19,03,2021-10-04_12h49.11.365,WordFreq,2021.1.4,Win32,59.9880024,,,,,,
,,w,1,0.8858,,,,,,intellectual,word,w,,Tally,female,19,03,2021-10-04_12h49.11.365,WordFreq,2021.1.4,Win32,59.9880024,0,0,0,51,1,68
,,w,1,1.6026,,,,,,uncoerced,word,w,,Tally,female,19,03,2021-10-04_12h49.11.365,WordFreq,2021.1.4,Win32,59.9880024,0,1,1,53,1,1
,,n,1,0.8405,,,,,,erudotoon,nonword,n,,Tally,female,19,03,2021-10-04_12h49.11.365,WordFreq,2021.1.4,Win32,59.9880024,0,2,2,101,1,1
,,w,1,0.696,,,,,,hospitality,word,w,,Tally,female,19,03,2021-10-04_12h49.11.365,WordFreq,2021.1.4,Win32,59.9880024,0,3,3,45,1,6
,,n,1,0.8452,,,,,,essaduoas,nonword,n,,Tally,female,19,03,2021-10-04_12h49.11.365,WordFreq,2021.1.4,Win32,59.9880024,0,4,4,60,1,1
,,n,1,1.5573,,,,,,servoce,nonword,n,,Tally,female,19,03,2021-10-04_12h49.11.365,WordFreq,2021.1.4,Win32,59.9880024,0,5,5,75,1,313
,,w,1,1.1527,,,,,,debating,word,w,,Tally,female,19,03,2021-10-04_12h49.11.365,WordFreq,2021.1.4,Win32,59.9880024,0,6,6,37,1,4
,,n,1,2.2814,,,,,,mundene,nonword,n,,Tally,female,19,03,2021-10-04_12h49.11.365,WordFreq,2021.1.4,Win32,59.9880024,0,7,7,110,1,3
,,w,1,1.2191,,,,,,orchestra,word,w,,Tally,female,19,03,2021-10-04_12h49.11.365,WordFreq,2021.1.4,Win32,59.9880024,0,8,8,20,1,60
,,w,1,1.3013,,,,,,government,word,w,,Tally,female,19,03,2021-10-04_12h49.11.365,WordFreq,2021.1.4,Win32,59.9880024,0,9,9,44,1,417
,,n,1,0.9227,,,,,,relogoous,nonword,n,,Tally,female,19,03,2021-10-04_12h49.11.365,WordFreq,2021.1.4,Win32,59.9880024,0,10,10,81,1,165
,,n,1,0.9016,,,,,,eltruostoc,nonword,n,,Tally,female,19,03,2021-10-04_12h49.11.365,WordFreq,2021.1.4,Win32,59.9880024,0,11,11,109,1,1
,,n,1,1.9368,,,,,,frageloty,nonword,n,,Tally,female,19,03,2021-10-04_12h49.11.365,WordFreq,2021.1.4,Win32,59.9880024,0,12,12,103,1,2
,,w,1,0.6537,,,,,,friendly,word,w,,Tally,female,19,03,2021-10-04_12h49.11.365,WordFreq,2021.1.4,Win32,59.9880024,0,13,13,8,1,61
,,w,1,0.7357,,,,,,earthly,word,w,,Tally,female,19,03,2021-10-04_12h49.11.365,WordFreq,2021.1.4,Win32,59.9880024,0,14,14,31,1,6
,,n,1,0.9513,,,,,,merket,nonword,n,,Tally,female,19,03,2021-10-04_12h49.11.365,WordFreq,2021.1.4,Win32,59.9880024,0,15,15,76,1,133
,,n,1,0.9178,,,,,,lewyor,nonword,n,,Tally,female,19,03,2021-10-04_12h49.11.365,WordFreq,2021.1.4,Win32,59.9880024,0,16,16,61,1,43
,,n,1,2.4682,,,,,,percopoence,nonword,n,,Tally,female,19,03,2021-10-04_12h49.11.365,WordFreq,2021.1.4,Win32,59.9880024,0,17,17,117,1,1
,,n,1,0.8721,,,,,,peontong,nonword,n,,Tally,female,19,03,2021-10-04_12h49.11.365,WordFreq,2021.1.4,Win32,59.9880024,0,18,18,82,1,59
,,n,1,1.0855,,,,,,rivurence,nonword,n,,Tally,female,19,03,2021-10-04_12h49.11.365,WordFreq,2021.1.4,Win32,59.9880024,0,19,19,79,1,5
,,n,1,1.1198,,,,,,emoceble,nonword,n,,Tally,female,19,03,2021-10-04_12h49.11.365,WordFreq,2021.1.4,Win32,59.9880024,0,20,20,112,1,1
,,n,1,1.6293,,,,,,eutomobole,nonword,n,,Tally,female,19,03,2021-10-04_12h49.11.365,WordFreq,2021.1.4,Win32,59.9880024,0,21,21,65,1,50
,,w,1,0.7117,,,,,,economics,word,w,,Tally,female,19,03,2021-10-04_12h49.11.365,WordFreq,2021.1.4,Win32,59.9880024,0,22,22,28,1,17
,,w,1,1.1355,,,,,,literary,word,w,,Tally,female,19,03,2021-10-04_12h49.11.365,WordFreq,2021.1.4,Win32,59.9880024,0,23,23,13,1,78
,,n,1,1.3524,,,,,,convovoeloty,nonword,n,,Tally,female,19,03,2021-10-04_12h49.11.365,WordFreq,2021.1.4,Win32,59.9880024,0,24,24,99,1,1
,,n,1,0.8358,,,,,,physocs,nonword,n,,Tally,female,19,03,2021-10-04_12h49.11.365,WordFreq,2021.1.4,Win32,59.9880024,0,25,25,62,1,22
,,w,1,0.6558,,,,,,initiative,word,w,,Tally,female,19,03,2021-10-04_12h49.11.365,WordFreq,2021.1.4,Win32,59.9880024,0,26,26,47,1,32
,,n,1,1.0679,,,,,,lomousone,nonword,n,,Tally,female,19,03,2021-10-04_12h49.11.365,WordFreq,2021.1.4,Win32,59.9880024,0,27,27,70,1,4
,,w,1,0.7782,,,,,,altruistic,word,w,,Tally,female,19,03,2021-10-04_12h49.11.365,WordFreq,2021.1.4,Win32,59.9880024,0,28,28,49,1,1
,,n,1,1.5979,,,,,,ancourced,nonword,n,,Tally,female,19,03,2021-10-04_12h49.11.365,WordFreq,2021.1.4,Win32,59.9880024,0,29,29,113,1,1
,,n,1,0.7679,,,,,,judocoery,nonword,n,,Tally,female,19,03,2021-10-04_12h49.11.365,WordFreq,2021.1.4,Win32,59.9880024,0,30,30,114,1,3
,,w,1,0.6304,,,,,,market,word,w,,Tally,female,19,03,2021-10-04_12h49.11.365,WordFreq,2021.1.4,Win32,59.9880024,0,31,31,16,1,133
,,w,1,0.8476,,,,,,metaphor,word,w,,Tally,female,19,03,2021-10-04_12h49.11.365,WordFreq,2021.1.4,Win32,59.9880024,0,32,32,34,1,5
,,n,1,0.833,,,,,,urchastre,nonword,n,,Tally,female,19,03,2021-10-04_12h49.11.365,WordFreq,2021.1.4,Win32,59.9880024,0,33,33,80,1,60
,,n,1,1.3105,,,,,,cindalence,nonword,n,,Tally,female,19,03,2021-10-04_12h49.11.365,WordFreq,2021.1.4,Win32,59.9880024,0,34,34,66,1,1
,,w,1,0.7508,,,,,,picture,word,w,,Tally,female,19,03,2021-10-04_12h49.11.365,WordFreq,2021.1.4,Win32,59.9880024,0,35,35,25,1,162
,,n,1,0.7028,,,,,,chencels,nonword,n,,Tally,female,19,03,2021-10-04_12h49.11.365,WordFreq,2021.1.4,Win32,59.9880024,0,36,36,87,1,1
,,n,1,0.8765,,,,,,stetostocs,nonword,n,,Tally,female,19,03,2021-10-04_12h49.11.365,WordFreq,2021.1.4,Win32,59.9880024,0,37,37,69,1,1
,,w,1,1.1861,,,,,,ensemble,word,w,,Tally,female,19,03,2021-10-04_12h49.11.365,WordFreq,2021.1.4,Win32,59.9880024,0,38,38,42,1,11
,,n,1,0.7524,,,,,,pietry,nonword,n,,Tally,female,19,03,2021-10-04_12h49.11.365,WordFreq,2021.1.4,Win32,59.9880024,0,39,39,86,1,88
,,n,1,0.8519,,,,,,scoentofoc,nonword,n,,Tally,female,19,03,2021-10-04_12h49.11.365,WordFreq,2021.1.4,Win32,59.9880024,0,40,40,93,1,86
,,n,1,1.3929,,,,,,robuttel,nonword,n,,Tally,female,19,03,2021-10-04_12h49.11.365,WordFreq,2021.1.4,Win32,59.9880024,0,41,41,116,1,2
,,n,1,1.0677,,,,,,acinamocs,nonword,n,,Tally,female,19,03,2021-10-04_12h49.11.365,WordFreq,2021.1.4,Win32,59.9880024,0,42,42,88,1,17
,,n,1,1.0077,,,,,,huevanly,nonword,n,,Tally,female,19,03,2021-10-04_12h49.11.365,WordFreq,2021.1.4,Win32,59.9880024,0,43,43,89,1,9
,,w,1,2.4858,,,,,,beatific,word,w,,Tally,female,19,03,2021-10-04_12h49.11.365,WordFreq,2021.1.4,Win32,59.9880024,0,44,44,14,1,1
,,w,1,0.5848,,,,,,painting,word,w,,Tally,female,19,03,2021-10-04_12h49.11.365,WordFreq,2021.1.4,Win32,59.9880024,0,45,45,22,1,59
,,n,1,0.8072,,,,,,froandly,nonword,n,,Tally,female,19,03,2021-10-04_12h49.11.365,WordFreq,2021.1.4,Win32,59.9880024,0,46,46,68,1,61
,,n,0,1.0761,,,,,,erudition,word,w,,Tally,female,19,03,2021-10-04_12h49.11.365,WordFreq,2021.1.4,Win32,59.9880024,0,47,47,41,1,1
,,n,1,1.4886,,,,,,poctere,nonword,n,,Tally,female,19,03,2021-10-04_12h49.11.365,WordFreq,2021.1.4,Win32,59.9880024,0,48,48,85,1,162
,,w,1,0.9712,,,,,,mundane,word,w,,Tally,female,19,03,2021-10-04_12h49.11.365,WordFreq,2021.1.4,Win32,59.9880024,0,49,49,50,1,3
,,w,1,0.7269,,,,,,service,word,w,,Tally,female,19,03,2021-10-04_12h49.11.365,WordFreq,2021.1.4,Win32,59.9880024,0,50,50,15,1,313
,,n,1,0.8404,,,,,,benogn,nonword,n,,Tally,female,19,03,2021-10-04_12h49.11.365,WordFreq,2021.1.4,Win32,59.9880024,0,51,51,77,1,1
,,w,1,0.7846,,,,,,poetry,word,w,,Tally,female,19,03,2021-10-04_12h49.11.365,WordFreq,2021.1.4,Win32,59.9880024,0,52,52,26,1,88
,,w,1,1.419,,,,,,pedagogue,word,w,,Tally,female,19,03,2021-10-04_12h49.11.365,WordFreq,2021.1.4,Win32,59.9880024,0,53,53,23,1,1
,,w,1,1.4695,,,,,,percipience,word,w,,Tally,female,19,03,2021-10-04_12h49.11.365,WordFreq,2021.1.4,Win32,59.9880024,0,54,54,57,1,1
,,w,1,0.5905,,,,,,religious,word,w,,Tally,female,19,03,2021-10-04_12h49.11.365,WordFreq,2021.1.4,Win32,59.9880024,0,55,55,21,1,165
,,n,1,0.7254,,,,,,knuwlidge,nonword,n,,Tally,female,19,03,2021-10-04_12h49.11.365,WordFreq,2021.1.4,Win32,59.9880024,0,56,56,119,1,145
,,n,1,0.7122,,,,,,beetofoc,nonword,n,,Tally,female,19,03,2021-10-04_12h49.11.365,WordFreq,2021.1.4,Win32,59.9880024,0,57,57,74,1,1
,,w,1,0.6905,,,,,,assets,word,w,,Tally,female,19,03,2021-10-04_12h49.11.365,WordFreq,2021.1.4,Win32,59.9880024,0,58,58,55,1,13
,,n,1,0.6088,,,,,,theostoc,nonword,n,,Tally,female,19,03,2021-10-04_12h49.11.365,WordFreq,2021.1.4,Win32,59.9880024,0,59,59,118,1,1
,,n,1,0.7648,,,,,,ontellectiel,nonword,n,,Tally,female,19,03,2021-10-04_12h49.11.365,WordFreq,2021.1.4,Win32,59.9880024,0,60,60,111,1,68
,,n,0,1.2091,,,,,,etcher,word,w,,Tally,female,19,03,2021-10-04_12h49.11.365,WordFreq,2021.1.4,Win32,59.9880024,0,61,61,40,1,1
,,w,1,0.862,,,,,,amicable,word,w,,Tally,female,19,03,2021-10-04_12h49.11.365,WordFreq,2021.1.4,Win32,59.9880024,0,62,62,52,1,1
,,w,1,0.618,,,,,,automobile,word,w,,Tally,female,19,03,2021-10-04_12h49.11.365,WordFreq,2021.1.4,Win32,59.9880024,0,63,63,5,1,50
,,w,1,0.838,,,,,,limousine,word,w,,Tally,female,19,03,2021-10-04_12h49.11.365,WordFreq,2021.1.4,Win32,59.9880024,0,64,64,10,1,4
,,w,1,0.5512,,,,,,savings,word,w,,Tally,female,19,03,2021-10-04_12h49.11.365,WordFreq,2021.1.4,Win32,59.9880024,0,65,65,18,1,23
,,w,1,0.6424,,,,,,spiritual,word,w,,Tally,female,19,03,2021-10-04_12h49.11.365,WordFreq,2021.1.4,Win32,59.9880024,0,66,66,12,1,64
,,n,1,4.514,,,,,,padegigue,nonword,n,,Tally,female,19,03,2021-10-04_12h49.11.365,WordFreq,2021.1.4,Win32,59.9880024,0,67,67,83,1,1
,,n,1,0.7621,,,,,,bruker,nonword,n,,Tally,female,19,03,2021-10-04_12h49.11.365,WordFreq,2021.1.4,Win32,59.9880024,0,68,68,95,1,1
,,n,1,0.8748,,,,,,psychocel,nonword,n,,Tally,female,19,03,2021-10-04_12h49.11.365,WordFreq,2021.1.4,Win32,59.9880024,0,69,69,84,1,4
,,n,1,0.6523,,,,,,aurthly,nonword,n,,Tally,female,19,03,2021-10-04_12h49.11.365,WordFreq,2021.1.4,Win32,59.9880024,0,70,70,91,1,6
,,w,1,0.7601,,,,,,churches,word,w,,Tally,female,19,03,2021-10-04_12h49.11.365,WordFreq,2021.1.4,Win32,59.9880024,0,71,71,36,1,96
,,w,1,1.1897,,,,,,judiciary,word,w,,Tally,female,19,03,2021-10-04_12h49.11.365,WordFreq,2021.1.4,Win32,59.9880024,0,72,72,54,1,3
,,w,1,0.759,,,,,,psychical,word,w,,Tally,female,19,03,2021-10-04_12h49.11.365,WordFreq,2021.1.4,Win32,59.9880024,0,73,73,24,1,4
,,n,1,0.6869,,,,,,onotoetove,nonword,n,,Tally,female,19,03,2021-10-04_12h49.11.365,WordFreq,2021.1.4,Win32,59.9880024,0,74,74,107,1,32
,,w,1,3.2357,,,,,,condolence,word,w,,Tally,female,19,03,2021-10-04_12h49.11.365,WordFreq,2021.1.4,Win32,59.9880024,0,75,75,6,1,1
,,w,1,0.6013,,,,,,scientific,word,w,,Tally,female,19,03,2021-10-04_12h49.11.365,WordFreq,2021.1.4,Win32,59.9880024,0,76,76,33,1,86
,,w,1,0.5227,,,,,,liberties,word,w,,Tally,female,19,03,2021-10-04_12h49.11.365,WordFreq,2021.1.4,Win32,59.9880024,0,77,77,4,1,8
,,w,1,0.6592,,,,,,education,word,w,,Tally,female,19,03,2021-10-04_12h49.11.365,WordFreq,2021.1.4,Win32,59.9880024,0,78,78,7,1,214
,,n,1,0.7057,,,,,,calestoel,nonword,n,,Tally,female,19,03,2021-10-04_12h49.11.365,WordFreq,2021.1.4,Win32,59.9880024,0,79,79,90,1,8
,,w,1,1.91,,,,,,broker,word,w,,Tally,female,19,03,2021-10-04_12h49.11.365,WordFreq,2021.1.4,Win32,59.9880024,0,80,80,35,1,1
,,n,1,0.8359,,,,,,essets,nonword,n,,Tally,female,19,03,2021-10-04_12h49.11.365,WordFreq,2021.1.4,Win32,59.9880024,0,81,81,115,1,13
,,w,1,0.8139,,,,,,charitable,word,w,,Tally,female,19,03,2021-10-04_12h49.11.365,WordFreq,2021.1.4,Win32,59.9880024,0,82,82,32,1,5
,,n,1,0.673,,,,,,berroster,nonword,n,,Tally,female,19,03,2021-10-04_12h49.11.365,WordFreq,2021.1.4,Win32,59.9880024,0,83,83,71,1,1
,,n,0,1.3757,,,,,,frugality,word,w,,Tally,female,19,03,2021-10-04_12h49.11.365,WordFreq,2021.1.4,Win32,59.9880024,0,84,84,43,1,2
,,n,1,0.7179,,,,,,lobertoes,nonword,n,,Tally,female,19,03,2021-10-04_12h49.11.365,WordFreq,2021.1.4,Win32,59.9880024,0,85,85,64,1,8
,,w,1,0.6346,,,,,,knowledge,word,w,,Tally,female,19,03,2021-10-04_12h49.11.365,WordFreq,2021.1.4,Win32,59.9880024,0,86,86,59,1,145
,,n,1,1.1014,,,,,,vognette,nonword,n,,Tally,female,19,03,2021-10-04_12h49.11.365,WordFreq,2021.1.4,Win32,59.9880024,0,87,87,108,1,2
,,w,1,0.8784,,,,,,celestial,word,w,,Tally,female,19,03,2021-10-04_12h49.11.365,WordFreq,2021.1.4,Win32,59.9880024,0,88,88,30,1,8
,,n,1,0.8901,,,,,,cheroteble,nonword,n,,Tally,female,19,03,2021-10-04_12h49.11.365,WordFreq,2021.1.4,Win32,59.9880024,0,89,89,92,1,5
,,w,1,0.5306,,,,,,heavenly,word,w,,Tally,female,19,03,2021-10-04_12h49.11.365,WordFreq,2021.1.4,Win32,59.9880024,0,90,90,29,1,9
,,w,1,3.2644,,,,,,barrister,word,w,,Tally,female,19,03,2021-10-04_12h49.11.365,WordFreq,2021.1.4,Win32,59.9880024,0,91,91,11,1,1
,,w,1,0.7172,,,,,,benign,word,w,,Tally,female,19,03,2021-10-04_12h49.11.365,WordFreq,2021.1.4,Win32,59.9880024,0,92,92,17,1,1
,,w,1,0.79,,,,,,vignette,word,w,,Tally,female,19,03,2021-10-04_12h49.11.365,WordFreq,2021.1.4,Win32,59.9880024,0,93,93,48,1,2
,,w,1,0.6184,,,,,,lawyer,word,w,,Tally,female,19,03,2021-10-04_12h49.11.365,WordFreq,2021.1.4,Win32,59.9880024,0,94,94,1,1,43
,,n,1,0.8722,,,,,,debetong,nonword,n,,Tally,female,19,03,2021-10-04_12h49.11.365,WordFreq,2021.1.4,Win32,59.9880024,0,95,95,97,1,4
,,n,1,0.8513,,,,,,huspoteloty,nonword,n,,Tally,female,19,03,2021-10-04_12h49.11.365,WordFreq,2021.1.4,Win32,59.9880024,0,96,96,105,1,6
,,n,1,1.0845,,,,,,unsumble,nonword,n,,Tally,female,19,03,2021-10-04_12h49.11.365,WordFreq,2021.1.4,Win32,59.9880024,0,97,97,102,1,11
,,w,1,0.7059,,,,,,inductive,word,w,,Tally,female,19,03,2021-10-04_12h49.11.365,WordFreq,2021.1.4,Win32,59.9880024,0,98,98,46,1,1
,,w,1,0.9455,,,,,,sympathy,word,w,,Tally,female,19,03,2021-10-04_12h49.11.365,WordFreq,2021.1.4,Win32,59.9880024,0,99,99,3,1,6
,,n,1,1.1711,,,,,,onductove,nonword,n,,Tally,female,19,03,2021-10-04_12h49.11.365,WordFreq,2021.1.4,Win32,59.9880024,0,100,100,106,1,1
,,n,0,1.0143,,,,,,chancels,word,w,,Tally,female,19,03,2021-10-04_12h49.11.365,WordFreq,2021.1.4,Win32,59.9880024,0,101,101,27,1,1
,,n,1,0.622,,,,,,sevongs,nonword,n,,Tally,female,19,03,2021-10-04_12h49.11.365,WordFreq,2021.1.4,Win32,59.9880024,0,102,102,78,1,23
,,n,1,1.1042,,,,,,charches,nonword,n,,Tally,female,19,03,2021-10-04_12h49.11.365,WordFreq,2021.1.4,Win32,59.9880024,0,103,103,96,1,96
,,n,1,0.9924,,,,,,iducetuon,nonword,n,,Tally,female,19,03,2021-10-04_12h49.11.365,WordFreq,2021.1.4,Win32,59.9880024,0,104,104,67,1,214
,,w,1,1.4202,,,,,,theistic,word,w,,Tally,female,19,03,2021-10-04_12h49.11.365,WordFreq,2021.1.4,Win32,59.9880024,0,105,105,58,1,1
,,w,1,2.0183,,,,,,assiduous,word,w,,Tally,female,19,03,2021-10-04_12h49.11.365,WordFreq,2021.1.4,Win32,59.9880024,0,106,106,0,1,1
,,n,0,1.3363,,,,,,conviviality,word,w,,Tally,female,19,03,2021-10-04_12h49.11.365,WordFreq,2021.1.4,Win32,59.9880024,0,107,107,39,1,1
,,n,1,0.6564,,,,,,alegoes,nonword,n,,Tally,female,19,03,2021-10-04_12h49.11.365,WordFreq,2021.1.4,Win32,59.9880024,0,108,108,98,1,1
,,w,1,1.0602,,,,,,rebuttal,word,w,,Tally,female,19,03,2021-10-04_12h49.11.365,WordFreq,2021.1.4,Win32,59.9880024,0,109,109,56,1,2
,,w,1,0.7389,,,,,,physics,word,w,,Tally,female,19,03,2021-10-04_12h49.11.365,WordFreq,2021.1.4,Win32,59.9880024,0,110,110,2,1,22
,,n,1,1.3349,,,,,,gavirnmunt,nonword,n,,Tally,female,19,03,2021-10-04_12h49.11.365,WordFreq,2021.1.4,Win32,59.9880024,0,111,111,104,1,417
,,n,1,1.1932,,,,,,sporotuel,nonword,n,,Tally,female,19,03,2021-10-04_12h49.11.365,WordFreq,2021.1.4,Win32,59.9880024,0,112,112,72,1,64
,,n,1,1.1696,,,,,,letarery,nonword,n,,Tally,female,19,03,2021-10-04_12h49.11.365,WordFreq,2021.1.4,Win32,59.9880024,0,113,113,73,1,78
,,n,0,0.8514,,,,,,elegies,word,w,,Tally,female,19,03,2021-10-04_12h49.11.365,WordFreq,2021.1.4,Win32,59.9880024,0,114,114,38,1,1
,,w,1,0.7184,,,,,,statistics,word,w,,Tally,female,19,03,2021-10-04_12h49.11.365,WordFreq,2021.1.4,Win32,59.9880024,0,115,115,9,1,1
,,n,1,0.5843,,,,,,sampothy,nonword,n,,Tally,female,19,03,2021-10-04_12h49.11.365,WordFreq,2021.1.4,Win32,59.9880024,0,116,116,63,1,6
,,w,1,1.0187,,,,,,reverence,word,w,,Tally,female,19,03,2021-10-04_12h49.11.365,WordFreq,2021.1.4,Win32,59.9880024,0,117,117,19,1,5
,,n,1,0.6845,,,,,,otchur,nonword,n,,Tally,female,19,03,2021-10-04_12h49.11.365,WordFreq,2021.1.4,Win32,59.9880024,0,118,118,100,1,1
,,n,1,0.5684,,,,,,mutephar,nonword,n,,Tally,female,19,03,2021-10-04_12h49.11.365,WordFreq,2021.1.4,Win32,59.9880024,0,119,119,94,1,5
