ok1.keys,ok1.rt,resp.keys,resp.corr,practiceTrials.thisRepN,practiceTrials.thisTrialN,practiceTrials.thisN,practiceTrials.thisIndex,practiceTrials.ran,strings,word_nonword,corrans,font,participant,gender (m/f),age,session,date,expName,psychopyVersion,OS,frameRate,resp.rt,trials.thisRepN,trials.thisTrialN,trials.thisN,trials.thisIndex,trials.ran,freq
n,30.9554,,0,0,0,0,0,1,dog,word,w,S,V,female,19,03,2021-10-03_09h35.21.763,WordFreq,2021.1.4,MacIntel,60.0024001,,,,,,,
,,n,1,0,1,1,8,1,dipplagungor,nonword,n,S,V,female,19,03,2021-10-03_09h35.21.763,WordFreq,2021.1.4,MacIntel,60.0024001,1.8498,,,,,,
,,n,0,0,2,2,3,1,doppleganger,word,w,SS,V,female,19,03,2021-10-03_09h35.21.763,WordFreq,2021.1.4,MacIntel,60.0024001,0.5056,,,,,,
,,n,1,0,3,3,9,1,casterd,nonword,n,SS,V,female,19,03,2021-10-03_09h35.21.763,WordFreq,2021.1.4,MacIntel,60.0024001,1.1348,,,,,,
,,w,1,0,4,4,1,1,house,word,w,SS,V,female,19,03,2021-10-03_09h35.21.763,WordFreq,2021.1.4,MacIntel,60.0024001,0.6364,,,,,,
,,n,1,0,5,5,5,1,deg,nonword,n,SS,V,female,19,03,2021-10-03_09h35.21.763,WordFreq,2021.1.4,MacIntel,60.0024001,0.6973,,,,,,
,,n,0,0,6,6,2,1,umlaut,word,w,S,V,female,19,03,2021-10-03_09h35.21.763,WordFreq,2021.1.4,MacIntel,60.0024001,0.7535,,,,,,
,,n,1,0,7,7,7,1,imleit,nonword,n,SS,V,female,19,03,2021-10-03_09h35.21.763,WordFreq,2021.1.4,MacIntel,60.0024001,0.682,,,,,,
,,n,1,0,8,8,6,1,haise,nonword,n,S,V,female,19,03,2021-10-03_09h35.21.763,WordFreq,2021.1.4,MacIntel,60.0024001,0.7341,,,,,,
,,n,0,0,9,9,4,1,custard,word,w,S,V,female,19,03,2021-10-03_09h35.21.763,WordFreq,2021.1.4,MacIntel,60.0024001,0.5502,,,,,,
,,n,1,,,,,,servoce,nonword,n,,V,female,19,03,2021-10-03_09h35.21.763,WordFreq,2021.1.4,MacIntel,60.0024001,0.6832,0,0,0,75,1,313
,,n,1,,,,,,onotoetove,nonword,n,,V,female,19,03,2021-10-03_09h35.21.763,WordFreq,2021.1.4,MacIntel,60.0024001,0.5972,0,1,1,107,1,32
,,n,1,,,,,,benogn,nonword,n,,V,female,19,03,2021-10-03_09h35.21.763,WordFreq,2021.1.4,MacIntel,60.0024001,0.6455,0,2,2,77,1,1
,,n,1,,,,,,emoceble,nonword,n,,V,female,19,03,2021-10-03_09h35.21.763,WordFreq,2021.1.4,MacIntel,60.0024001,0.5023,0,3,3,112,1,1
,,w,1,,,,,,broker,word,w,,V,female,19,03,2021-10-03_09h35.21.763,WordFreq,2021.1.4,MacIntel,60.0024001,0.598,0,4,4,35,1,1
,,n,1,,,,,,cheroteble,nonword,n,,V,female,19,03,2021-10-03_09h35.21.763,WordFreq,2021.1.4,MacIntel,60.0024001,0.4649,0,5,5,92,1,5
,,n,0,,,,,,orchestra,word,w,,V,female,19,03,2021-10-03_09h35.21.763,WordFreq,2021.1.4,MacIntel,60.0024001,0.5225,0,6,6,20,1,60
,,w,1,,,,,,spiritual,word,w,,V,female,19,03,2021-10-03_09h35.21.763,WordFreq,2021.1.4,MacIntel,60.0024001,0.8308,0,7,7,12,1,64
,,n,0,,,,,,elegies,word,w,,V,female,19,03,2021-10-03_09h35.21.763,WordFreq,2021.1.4,MacIntel,60.0024001,0.5839,0,8,8,38,1,1
,,w,1,,,,,,altruistic,word,w,,V,female,19,03,2021-10-03_09h35.21.763,WordFreq,2021.1.4,MacIntel,60.0024001,0.7662,0,9,9,49,1,1
,,n,0,,,,,,etcher,word,w,,V,female,19,03,2021-10-03_09h35.21.763,WordFreq,2021.1.4,MacIntel,60.0024001,0.6161,0,10,10,40,1,1
,,w,1,,,,,,inductive,word,w,,V,female,19,03,2021-10-03_09h35.21.763,WordFreq,2021.1.4,MacIntel,60.0024001,0.633,0,11,11,46,1,1
,,w,1,,,,,,liberties,word,w,,V,female,19,03,2021-10-03_09h35.21.763,WordFreq,2021.1.4,MacIntel,60.0024001,0.6317,0,12,12,4,1,8
,,w,1,,,,,,heavenly,word,w,,V,female,19,03,2021-10-03_09h35.21.763,WordFreq,2021.1.4,MacIntel,60.0024001,0.5887,0,13,13,29,1,9
,,w,1,,,,,,rebuttal,word,w,,V,female,19,03,2021-10-03_09h35.21.763,WordFreq,2021.1.4,MacIntel,60.0024001,0.4985,0,14,14,56,1,2
,,n,1,,,,,,percopoence,nonword,n,,V,female,19,03,2021-10-03_09h35.21.763,WordFreq,2021.1.4,MacIntel,60.0024001,0.9664,0,15,15,117,1,1
,,w,1,,,,,,frugality,word,w,,V,female,19,03,2021-10-03_09h35.21.763,WordFreq,2021.1.4,MacIntel,60.0024001,0.5225,0,16,16,43,1,2
,,w,0,,,,,,letarery,nonword,n,,V,female,19,03,2021-10-03_09h35.21.763,WordFreq,2021.1.4,MacIntel,60.0024001,0.7032,0,17,17,73,1,78
,,w,1,,,,,,erudition,word,w,,V,female,19,03,2021-10-03_09h35.21.763,WordFreq,2021.1.4,MacIntel,60.0024001,1.151,0,18,18,41,1,1
,,n,1,,,,,,lobertoes,nonword,n,,V,female,19,03,2021-10-03_09h35.21.763,WordFreq,2021.1.4,MacIntel,60.0024001,0.6364,0,19,19,64,1,8
,,w,1,,,,,,charitable,word,w,,V,female,19,03,2021-10-03_09h35.21.763,WordFreq,2021.1.4,MacIntel,60.0024001,0.7654,0,20,20,32,1,5
,,w,1,,,,,,assets,word,w,,V,female,19,03,2021-10-03_09h35.21.763,WordFreq,2021.1.4,MacIntel,60.0024001,0.6627,0,21,21,55,1,13
,,n,1,,,,,,physocs,nonword,n,,V,female,19,03,2021-10-03_09h35.21.763,WordFreq,2021.1.4,MacIntel,60.0024001,1.0204,0,22,22,62,1,22
,,n,1,,,,,,huevanly,nonword,n,,V,female,19,03,2021-10-03_09h35.21.763,WordFreq,2021.1.4,MacIntel,60.0024001,0.9245,0,23,23,89,1,9
,,n,1,,,,,,ontellectiel,nonword,n,,V,female,19,03,2021-10-03_09h35.21.763,WordFreq,2021.1.4,MacIntel,60.0024001,0.8989,0,24,24,111,1,68
,,n,0,,,,,,percipience,word,w,,V,female,19,03,2021-10-03_09h35.21.763,WordFreq,2021.1.4,MacIntel,60.0024001,0.9507,0,25,25,57,1,1
,,w,1,,,,,,celestial,word,w,,V,female,19,03,2021-10-03_09h35.21.763,WordFreq,2021.1.4,MacIntel,60.0024001,0.8696,0,26,26,30,1,8
,,n,1,,,,,,vognette,nonword,n,,V,female,19,03,2021-10-03_09h35.21.763,WordFreq,2021.1.4,MacIntel,60.0024001,0.6007,0,27,27,108,1,2
,,n,1,,,,,,iducetuon,nonword,n,,V,female,19,03,2021-10-03_09h35.21.763,WordFreq,2021.1.4,MacIntel,60.0024001,0.5819,0,28,28,67,1,214
,,n,1,,,,,,peontong,nonword,n,,V,female,19,03,2021-10-03_09h35.21.763,WordFreq,2021.1.4,MacIntel,60.0024001,0.6035,0,29,29,82,1,59
,,n,1,,,,,,poctere,nonword,n,,V,female,19,03,2021-10-03_09h35.21.763,WordFreq,2021.1.4,MacIntel,60.0024001,0.3954,0,30,30,85,1,162
,,n,0,,,,,,conviviality,word,w,,V,female,19,03,2021-10-03_09h35.21.763,WordFreq,2021.1.4,MacIntel,60.0024001,0.7054,0,31,31,39,1,1
,,n,1,,,,,,lewyor,nonword,n,,V,female,19,03,2021-10-03_09h35.21.763,WordFreq,2021.1.4,MacIntel,60.0024001,0.8007,0,32,32,61,1,43
,,n,1,,,,,,acinamocs,nonword,n,,V,female,19,03,2021-10-03_09h35.21.763,WordFreq,2021.1.4,MacIntel,60.0024001,0.7461,0,33,33,88,1,17
,,n,1,,,,,,berroster,nonword,n,,V,female,19,03,2021-10-03_09h35.21.763,WordFreq,2021.1.4,MacIntel,60.0024001,0.3829,0,34,34,71,1,1
,,n,0,,,,,,assiduous,word,w,,V,female,19,03,2021-10-03_09h35.21.763,WordFreq,2021.1.4,MacIntel,60.0024001,0.3693,0,35,35,0,1,1
,,n,1,,,,,,mundene,nonword,n,,V,female,19,03,2021-10-03_09h35.21.763,WordFreq,2021.1.4,MacIntel,60.0024001,0.4373,0,36,36,110,1,3
,,n,1,,,,,,pietry,nonword,n,,V,female,19,03,2021-10-03_09h35.21.763,WordFreq,2021.1.4,MacIntel,60.0024001,0.5682,0,37,37,86,1,88
,,n,1,,,,,,erudotoon,nonword,n,,V,female,19,03,2021-10-03_09h35.21.763,WordFreq,2021.1.4,MacIntel,60.0024001,0.5809,0,38,38,101,1,1
,,w,1,,,,,,statistics,word,w,,V,female,19,03,2021-10-03_09h35.21.763,WordFreq,2021.1.4,MacIntel,60.0024001,0.6846,0,39,39,9,1,1
,,n,1,,,,,,debetong,nonword,n,,V,female,19,03,2021-10-03_09h35.21.763,WordFreq,2021.1.4,MacIntel,60.0024001,0.6028,0,40,40,97,1,4
,,n,0,,,,,,religious,word,w,,V,female,19,03,2021-10-03_09h35.21.763,WordFreq,2021.1.4,MacIntel,60.0024001,0.5172,0,41,41,21,1,165
,,n,1,,,,,,lomousone,nonword,n,,V,female,19,03,2021-10-03_09h35.21.763,WordFreq,2021.1.4,MacIntel,60.0024001,0.6823,0,42,42,70,1,4
,,n,1,,,,,,bruker,nonword,n,,V,female,19,03,2021-10-03_09h35.21.763,WordFreq,2021.1.4,MacIntel,60.0024001,0.8964,0,43,43,95,1,1
,,w,1,,,,,,psychical,word,w,,V,female,19,03,2021-10-03_09h35.21.763,WordFreq,2021.1.4,MacIntel,60.0024001,0.7011,0,44,44,24,1,4
,,w,1,,,,,,benign,word,w,,V,female,19,03,2021-10-03_09h35.21.763,WordFreq,2021.1.4,MacIntel,60.0024001,0.6857,0,45,45,17,1,1
,,w,1,,,,,,mundane,word,w,,V,female,19,03,2021-10-03_09h35.21.763,WordFreq,2021.1.4,MacIntel,60.0024001,0.5566,0,46,46,50,1,3
,,n,1,,,,,,beetofoc,nonword,n,,V,female,19,03,2021-10-03_09h35.21.763,WordFreq,2021.1.4,MacIntel,60.0024001,0.5184,0,47,47,74,1,1
,,n,1,,,,,,stetostocs,nonword,n,,V,female,19,03,2021-10-03_09h35.21.763,WordFreq,2021.1.4,MacIntel,60.0024001,0.702,0,48,48,69,1,1
,,n,1,,,,,,judocoery,nonword,n,,V,female,19,03,2021-10-03_09h35.21.763,WordFreq,2021.1.4,MacIntel,60.0024001,0.967,0,49,49,114,1,3
,,n,1,,,,,,aurthly,nonword,n,,V,female,19,03,2021-10-03_09h35.21.763,WordFreq,2021.1.4,MacIntel,60.0024001,1.0336,0,50,50,91,1,6
,,w,1,,,,,,painting,word,w,,V,female,19,03,2021-10-03_09h35.21.763,WordFreq,2021.1.4,MacIntel,60.0024001,0.6513,0,51,51,22,1,59
,,w,0,,,,,,robuttel,nonword,n,,V,female,19,03,2021-10-03_09h35.21.763,WordFreq,2021.1.4,MacIntel,60.0024001,0.6702,0,52,52,116,1,2
,,n,1,,,,,,essaduoas,nonword,n,,V,female,19,03,2021-10-03_09h35.21.763,WordFreq,2021.1.4,MacIntel,60.0024001,0.6677,0,53,53,60,1,1
,,n,1,,,,,,gavirnmunt,nonword,n,,V,female,19,03,2021-10-03_09h35.21.763,WordFreq,2021.1.4,MacIntel,60.0024001,0.648,0,54,54,104,1,417
,,n,1,,,,,,psychocel,nonword,n,,V,female,19,03,2021-10-03_09h35.21.763,WordFreq,2021.1.4,MacIntel,60.0024001,1.3993,0,55,55,84,1,4
,,n,1,,,,,,otchur,nonword,n,,V,female,19,03,2021-10-03_09h35.21.763,WordFreq,2021.1.4,MacIntel,60.0024001,0.8668,0,56,56,100,1,1
,,n,1,,,,,,eltruostoc,nonword,n,,V,female,19,03,2021-10-03_09h35.21.763,WordFreq,2021.1.4,MacIntel,60.0024001,0.5171,0,57,57,109,1,1
,,n,1,,,,,,onductove,nonword,n,,V,female,19,03,2021-10-03_09h35.21.763,WordFreq,2021.1.4,MacIntel,60.0024001,0.7318,0,58,58,106,1,1
,,n,1,,,,,,scoentofoc,nonword,n,,V,female,19,03,2021-10-03_09h35.21.763,WordFreq,2021.1.4,MacIntel,60.0024001,0.503,0,59,59,93,1,86
,,n,1,,,,,,unsumble,nonword,n,,V,female,19,03,2021-10-03_09h35.21.763,WordFreq,2021.1.4,MacIntel,60.0024001,0.9167,0,60,60,102,1,11
,,w,1,,,,,,picture,word,w,,V,female,19,03,2021-10-03_09h35.21.763,WordFreq,2021.1.4,MacIntel,60.0024001,0.7677,0,61,61,25,1,162
,,n,1,,,,,,calestoel,nonword,n,,V,female,19,03,2021-10-03_09h35.21.763,WordFreq,2021.1.4,MacIntel,60.0024001,0.548,0,62,62,90,1,8
,,w,0,,,,,,chencels,nonword,n,,V,female,19,03,2021-10-03_09h35.21.763,WordFreq,2021.1.4,MacIntel,60.0024001,0.6033,0,63,63,87,1,1
,,n,0,,,,,,friendly,word,w,,V,female,19,03,2021-10-03_09h35.21.763,WordFreq,2021.1.4,MacIntel,60.0024001,0.5009,0,64,64,8,1,61
,,n,1,,,,,,padegigue,nonword,n,,V,female,19,03,2021-10-03_09h35.21.763,WordFreq,2021.1.4,MacIntel,60.0024001,1.8984,0,65,65,83,1,1
,,n,1,,,,,,frageloty,nonword,n,,V,female,19,03,2021-10-03_09h35.21.763,WordFreq,2021.1.4,MacIntel,60.0024001,0.7133,0,66,66,103,1,2
,,w,1,,,,,,hospitality,word,w,,V,female,19,03,2021-10-03_09h35.21.763,WordFreq,2021.1.4,MacIntel,60.0024001,0.6511,0,67,67,45,1,6
,,w,1,,,,,,service,word,w,,V,female,19,03,2021-10-03_09h35.21.763,WordFreq,2021.1.4,MacIntel,60.0024001,0.6326,0,68,68,15,1,313
,,n,0,,,,,,judiciary,word,w,,V,female,19,03,2021-10-03_09h35.21.763,WordFreq,2021.1.4,MacIntel,60.0024001,0.666,0,69,69,54,1,3
,,w,1,,,,,,savings,word,w,,V,female,19,03,2021-10-03_09h35.21.763,WordFreq,2021.1.4,MacIntel,60.0024001,0.4969,0,70,70,18,1,23
,,w,1,,,,,,churches,word,w,,V,female,19,03,2021-10-03_09h35.21.763,WordFreq,2021.1.4,MacIntel,60.0024001,0.5336,0,71,71,36,1,96
,,n,1,,,,,,theostoc,nonword,n,,V,female,19,03,2021-10-03_09h35.21.763,WordFreq,2021.1.4,MacIntel,60.0024001,0.8792,0,72,72,118,1,1
,,n,1,,,,,,froandly,nonword,n,,V,female,19,03,2021-10-03_09h35.21.763,WordFreq,2021.1.4,MacIntel,60.0024001,0.7733,0,73,73,68,1,61
,,w,1,,,,,,amicable,word,w,,V,female,19,03,2021-10-03_09h35.21.763,WordFreq,2021.1.4,MacIntel,60.0024001,0.8804,0,74,74,52,1,1
,,n,1,,,,,,knuwlidge,nonword,n,,V,female,19,03,2021-10-03_09h35.21.763,WordFreq,2021.1.4,MacIntel,60.0024001,0.3852,0,75,75,119,1,145
,,w,1,,,,,,poetry,word,w,,V,female,19,03,2021-10-03_09h35.21.763,WordFreq,2021.1.4,MacIntel,60.0024001,0.4797,0,76,76,26,1,88
,,w,1,,,,,,pedagogue,word,w,,V,female,19,03,2021-10-03_09h35.21.763,WordFreq,2021.1.4,MacIntel,60.0024001,0.6304,0,77,77,23,1,1
,,n,1,,,,,,relogoous,nonword,n,,V,female,19,03,2021-10-03_09h35.21.763,WordFreq,2021.1.4,MacIntel,60.0024001,0.7137,0,78,78,81,1,165
,,w,1,,,,,,reverence,word,w,,V,female,19,03,2021-10-03_09h35.21.763,WordFreq,2021.1.4,MacIntel,60.0024001,0.5696,0,79,79,19,1,5
,,w,1,,,,,,scientific,word,w,,V,female,19,03,2021-10-03_09h35.21.763,WordFreq,2021.1.4,MacIntel,60.0024001,0.5484,0,80,80,33,1,86
,,n,1,,,,,,charches,nonword,n,,V,female,19,03,2021-10-03_09h35.21.763,WordFreq,2021.1.4,MacIntel,60.0024001,0.4476,0,81,81,96,1,96
,,w,1,,,,,,barrister,word,w,,V,female,19,03,2021-10-03_09h35.21.763,WordFreq,2021.1.4,MacIntel,60.0024001,0.5719,0,82,82,11,1,1
,,w,1,,,,,,metaphor,word,w,,V,female,19,03,2021-10-03_09h35.21.763,WordFreq,2021.1.4,MacIntel,60.0024001,0.6657,0,83,83,34,1,5
,,w,1,,,,,,earthly,word,w,,V,female,19,03,2021-10-03_09h35.21.763,WordFreq,2021.1.4,MacIntel,60.0024001,0.6168,0,84,84,31,1,6
,,n,1,,,,,,urchastre,nonword,n,,V,female,19,03,2021-10-03_09h35.21.763,WordFreq,2021.1.4,MacIntel,60.0024001,0.5534,0,85,85,80,1,60
,,n,1,,,,,,rivurence,nonword,n,,V,female,19,03,2021-10-03_09h35.21.763,WordFreq,2021.1.4,MacIntel,60.0024001,0.6133,0,86,86,79,1,5
,,n,1,,,,,,mutephar,nonword,n,,V,female,19,03,2021-10-03_09h35.21.763,WordFreq,2021.1.4,MacIntel,60.0024001,1.0069,0,87,87,94,1,5
,,n,1,,,,,,ancourced,nonword,n,,V,female,19,03,2021-10-03_09h35.21.763,WordFreq,2021.1.4,MacIntel,60.0024001,1.1152,0,88,88,113,1,1
,,w,0,,,,,,essets,nonword,n,,V,female,19,03,2021-10-03_09h35.21.763,WordFreq,2021.1.4,MacIntel,60.0024001,0.5537,0,89,89,115,1,13
,,n,1,,,,,,sporotuel,nonword,n,,V,female,19,03,2021-10-03_09h35.21.763,WordFreq,2021.1.4,MacIntel,60.0024001,0.5862,0,90,90,72,1,64
,,w,1,,,,,,economics,word,w,,V,female,19,03,2021-10-03_09h35.21.763,WordFreq,2021.1.4,MacIntel,60.0024001,0.6563,0,91,91,28,1,17
,,n,1,,,,,,eutomobole,nonword,n,,V,female,19,03,2021-10-03_09h35.21.763,WordFreq,2021.1.4,MacIntel,60.0024001,0.6327,0,92,92,65,1,50
,,w,1,,,,,,ensemble,word,w,,V,female,19,03,2021-10-03_09h35.21.763,WordFreq,2021.1.4,MacIntel,60.0024001,1.1343,0,93,93,42,1,11
,,n,0,,,,,,sympathy,word,w,,V,female,19,03,2021-10-03_09h35.21.763,WordFreq,2021.1.4,MacIntel,60.0024001,1.4164,0,94,94,3,1,6
,,w,1,,,,,,beatific,word,w,,V,female,19,03,2021-10-03_09h35.21.763,WordFreq,2021.1.4,MacIntel,60.0024001,0.8351,0,95,95,14,1,1
,,n,1,,,,,,cindalence,nonword,n,,V,female,19,03,2021-10-03_09h35.21.763,WordFreq,2021.1.4,MacIntel,60.0024001,0.7667,0,96,96,66,1,1
,,n,0,,,,,,theistic,word,w,,V,female,19,03,2021-10-03_09h35.21.763,WordFreq,2021.1.4,MacIntel,60.0024001,0.7312,0,97,97,58,1,1
,,n,1,,,,,,convovoeloty,nonword,n,,V,female,19,03,2021-10-03_09h35.21.763,WordFreq,2021.1.4,MacIntel,60.0024001,0.7136,0,98,98,99,1,1
,,w,1,,,,,,automobile,word,w,,V,female,19,03,2021-10-03_09h35.21.763,WordFreq,2021.1.4,MacIntel,60.0024001,0.6493,0,99,99,5,1,50
,,w,1,,,,,,government,word,w,,V,female,19,03,2021-10-03_09h35.21.763,WordFreq,2021.1.4,MacIntel,60.0024001,0.467,0,100,100,44,1,417
,,w,1,,,,,,debating,word,w,,V,female,19,03,2021-10-03_09h35.21.763,WordFreq,2021.1.4,MacIntel,60.0024001,0.6518,0,101,101,37,1,4
,,w,1,,,,,,lawyer,word,w,,V,female,19,03,2021-10-03_09h35.21.763,WordFreq,2021.1.4,MacIntel,60.0024001,0.5024,0,102,102,1,1,43
,,n,1,,,,,,huspoteloty,nonword,n,,V,female,19,03,2021-10-03_09h35.21.763,WordFreq,2021.1.4,MacIntel,60.0024001,0.6562,0,103,103,105,1,6
,,w,1,,,,,,condolence,word,w,,V,female,19,03,2021-10-03_09h35.21.763,WordFreq,2021.1.4,MacIntel,60.0024001,0.6173,0,104,104,6,1,1
,,n,0,,,,,,limousine,word,w,,V,female,19,03,2021-10-03_09h35.21.763,WordFreq,2021.1.4,MacIntel,60.0024001,0.7155,0,105,105,10,1,4
,,w,1,,,,,,physics,word,w,,V,female,19,03,2021-10-03_09h35.21.763,WordFreq,2021.1.4,MacIntel,60.0024001,0.5332,0,106,106,2,1,22
,,w,1,,,,,,market,word,w,,V,female,19,03,2021-10-03_09h35.21.763,WordFreq,2021.1.4,MacIntel,60.0024001,0.5493,0,107,107,16,1,133
,,n,1,,,,,,sevongs,nonword,n,,V,female,19,03,2021-10-03_09h35.21.763,WordFreq,2021.1.4,MacIntel,60.0024001,0.8978,0,108,108,78,1,23
,,w,1,,,,,,education,word,w,,V,female,19,03,2021-10-03_09h35.21.763,WordFreq,2021.1.4,MacIntel,60.0024001,0.5875,0,109,109,7,1,214
,,w,1,,,,,,literary,word,w,,V,female,19,03,2021-10-03_09h35.21.763,WordFreq,2021.1.4,MacIntel,60.0024001,0.5496,0,110,110,13,1,78
,,w,1,,,,,,uncoerced,word,w,,V,female,19,03,2021-10-03_09h35.21.763,WordFreq,2021.1.4,MacIntel,60.0024001,1.5513,0,111,111,53,1,1
,,w,1,,,,,,intellectual,word,w,,V,female,19,03,2021-10-03_09h35.21.763,WordFreq,2021.1.4,MacIntel,60.0024001,0.7018,0,112,112,51,1,68
,,w,1,,,,,,initiative,word,w,,V,female,19,03,2021-10-03_09h35.21.763,WordFreq,2021.1.4,MacIntel,60.0024001,0.6503,0,113,113,47,1,32
,,n,0,,,,,,knowledge,word,w,,V,female,19,03,2021-10-03_09h35.21.763,WordFreq,2021.1.4,MacIntel,60.0024001,0.5403,0,114,114,59,1,145
,,w,1,,,,,,chancels,word,w,,V,female,19,03,2021-10-03_09h35.21.763,WordFreq,2021.1.4,MacIntel,60.0024001,0.6024,0,115,115,27,1,1
,,n,1,,,,,,alegoes,nonword,n,,V,female,19,03,2021-10-03_09h35.21.763,WordFreq,2021.1.4,MacIntel,60.0024001,0.9172,0,116,116,98,1,1
,,n,1,,,,,,sampothy,nonword,n,,V,female,19,03,2021-10-03_09h35.21.763,WordFreq,2021.1.4,MacIntel,60.0024001,1.0004,0,117,117,63,1,6
,,n,1,,,,,,merket,nonword,n,,V,female,19,03,2021-10-03_09h35.21.763,WordFreq,2021.1.4,MacIntel,60.0024001,0.635,0,118,118,76,1,133
,,w,1,,,,,,vignette,word,w,,V,female,19,03,2021-10-03_09h35.21.763,WordFreq,2021.1.4,MacIntel,60.0024001,0.8538,0,119,119,48,1,2
